Subject,CondNumber,corr_resp,Stimulus.ACC,Stimulus.RESP,Stimulus.RT,target,preview1,preview3
1,1,1,1,1,1039,++R++,+++++,+++++
1,6,5,0,1,1030,++E++,+++++,++a++
1,10,5,1,5,1202,RRARR,+++++,++r++
1,16,5,1,5,699,RRERR,++r++,++r++
1,12,5,1,5,576,++A++,++e++,++e++
1,9,5,1,5,806,EEAEE,+++++,++e++
1,8,1,1,1,603,RRRRR,+++++,++r++
1,5,5,1,5,983,++A++,+++++,++a++
1,1,1,1,1,1002,++N++,+++++,+++++
1,13,5,1,5,955,++E++,++n++,++n++
1,7,1,1,1,719,++N++,+++++,++e++
1,1,5,1,5,819,++A++,+++++,+++++
1,1,5,1,5,559,++E++,+++++,+++++
1,1,5,1,5,432,++E++,+++++,+++++
1,2,1,1,1,541,NNNNN,+++++,+++++
1,4,5,1,5,779,NNENN,+++++,+++++
1,1,1,1,1,559,++N++,+++++,+++++
1,1,1,1,1,579,++R++,+++++,+++++
1,8,5,1,5,487,EEEEE,+++++,++e++
1,4,1,1,1,629,EEREE,+++++,+++++
1,3,1,1,1,759,NNRNN,+++++,+++++
1,13,1,1,1,652,++R++,++e++,++e++
1,13,5,1,5,473,++A++,++r++,++r++
1,4,5,1,5,844,RRARR,+++++,+++++
1,16,1,1,1,592,EENEE,++e++,++e++
1,10,1,1,1,747,AANAA,+++++,++a++
1,6,1,1,1,812,++R++,+++++,++n++
1,8,1,1,1,555,NNNNN,+++++,++n++
1,1,1,1,1,1592,++R++,+++++,+++++
1,7,5,1,5,532,++A++,+++++,++n++
1,4,1,1,1,764,EENEE,+++++,+++++
1,1,5,1,5,724,++A++,+++++,+++++
1,12,5,1,5,901,++E++,++a++,++a++
1,3,5,1,5,652,AAEAA,+++++,+++++
1,11,1,1,1,627,++N++,++n++,++n++
1,15,1,1,1,685,RRNRR,++r++,++r++
1,3,1,1,1,925,RRNRR,+++++,+++++
1,8,5,1,5,591,AAAAA,+++++,++a++
1,5,5,1,5,1162,++E++,+++++,++e++
1,9,1,1,1,593,RRNRR,+++++,++r++
1,14,1,1,1,542,RRRRR,++r++,++r++
1,10,5,1,5,833,NNENN,+++++,++n++
1,7,1,1,1,842,++R++,+++++,++e++
1,13,1,1,1,823,++N++,++e++,++e++
1,1,5,1,5,1252,++E++,+++++,+++++
1,13,1,1,1,697,++N++,++a++,++a++
1,14,5,1,5,412,EEEEE,++e++,++e++
1,1,1,1,1,1075,++N++,+++++,+++++
1,14,5,1,5,396,AAAAA,++a++,++a++
1,7,5,1,5,889,++E++,+++++,++r++
1,13,1,1,1,532,++R++,++a++,++a++
1,11,5,1,5,390,++A++,++a++,++a++
1,11,1,1,1,754,++R++,++r++,++r++
1,1,5,1,5,822,++A++,+++++,+++++
1,1,1,1,1,546,++R++,+++++,+++++
1,15,5,1,5,834,EEAEE,++e++,++e++
1,4,1,1,1,695,AARAA,+++++,+++++
1,7,1,1,1,1609,++R++,+++++,++a++
1,13,5,1,5,631,++A++,++n++,++n++
1,12,1,1,1,773,++R++,++n++,++n++
1,2,1,1,1,684,RRRRR,+++++,+++++
1,7,1,1,1,645,++N++,+++++,++a++
1,10,1,1,1,827,EENEE,+++++,++e++
1,15,5,1,5,573,AAEAA,++a++,++a++
1,16,1,1,1,395,AARAA,++a++,++a++
1,11,5,1,5,578,++E++,++e++,++e++
1,2,5,1,5,499,EEEEE,+++++,+++++
1,7,5,0,1,564,++E++,+++++,++n++
1,6,5,1,5,796,++A++,+++++,++e++
1,5,1,1,1,639,++R++,+++++,++r++
1,10,5,1,5,574,RRERR,+++++,++r++
1,7,5,0,1,702,++A++,+++++,++r++
1,1,5,1,5,533,++A++,+++++,+++++
1,1,1,1,1,740,++N++,+++++,+++++
1,10,5,1,5,495,NNANN,+++++,++n++
1,4,1,1,1,627,AANAA,+++++,+++++
1,15,1,1,1,655,NNRNN,++n++,++n++
1,1,5,1,5,759,++E++,+++++,+++++
1,9,5,1,5,592,AAEAA,+++++,++a++
1,10,1,1,1,682,EEREE,+++++,++e++
1,16,1,1,1,451,AANAA,++a++,++a++
1,4,5,1,5,523,NNANN,+++++,+++++
1,10,1,1,1,856,AARAA,+++++,++a++
1,16,1,1,1,699,EEREE,++e++,++e++
1,14,1,1,1,687,NNNNN,++n++,++n++
1,12,1,1,1,960,++N++,++r++,++r++
1,2,5,1,5,578,AAAAA,+++++,+++++
1,5,1,1,1,743,++N++,+++++,++n++
1,3,5,1,5,500,EEAEE,+++++,+++++
1,4,5,1,5,1091,RRERR,+++++,+++++
1,9,1,1,1,716,NNRNN,+++++,++n++
1,6,1,1,1,845,++N++,+++++,++r++
1,16,5,1,5,619,RRARR,++r++,++r++
1,16,5,1,5,567,NNENN,++n++,++n++
1,16,5,1,5,622,NNANN,++n++,++n++
1,13,5,1,5,619,++E++,++r++,++r++
1,16,5,1,5,753,NNENN,++n++,++n++
1,4,5,1,5,1117,NNENN,+++++,+++++
1,1,1,1,1,1089,++R++,+++++,+++++
1,16,5,1,5,598,NNANN,++n++,++n++
1,4,1,1,1,549,EEREE,+++++,+++++
1,2,5,1,5,665,EEEEE,+++++,+++++
1,3,5,1,5,751,AAEAA,+++++,+++++
1,2,1,1,1,630,NNNNN,+++++,+++++
1,12,5,1,5,515,++E++,++a++,++a++
1,10,1,1,1,712,AARAA,+++++,++a++
1,11,1,1,1,809,++R++,++r++,++r++
1,14,1,1,1,571,RRRRR,++r++,++r++
1,11,5,1,5,667,++E++,++e++,++e++
1,4,5,1,5,733,RRERR,+++++,+++++
1,16,1,1,1,655,EENEE,++e++,++e++
1,10,1,1,1,1062,EEREE,+++++,++e++
1,7,5,1,5,602,++A++,+++++,++n++
1,5,1,1,1,849,++N++,+++++,++n++
1,7,5,1,5,505,++E++,+++++,++n++
1,13,5,1,5,561,++A++,++r++,++r++
1,5,5,1,5,496,++A++,+++++,++a++
1,15,5,0,1,419,AAEAA,++a++,++a++
1,13,1,1,1,638,++N++,++e++,++e++
1,7,5,1,5,580,++E++,+++++,++r++
1,11,5,1,5,628,++A++,++a++,++a++
1,2,1,1,1,798,RRRRR,+++++,+++++
1,9,5,1,5,718,AAEAA,+++++,++a++
1,10,1,1,1,702,AANAA,+++++,++a++
1,13,5,1,5,545,++A++,++n++,++n++
1,8,1,1,1,690,NNNNN,+++++,++n++
1,14,1,1,1,541,NNNNN,++n++,++n++
1,4,5,1,5,613,NNANN,+++++,+++++
1,7,1,1,1,850,++R++,+++++,++e++
1,4,1,1,1,607,AARAA,+++++,+++++
1,4,1,1,1,730,AANAA,+++++,+++++
1,7,1,1,1,997,++R++,+++++,++a++
1,4,5,1,5,642,RRARR,+++++,+++++
1,1,1,1,1,611,++R++,+++++,+++++
1,2,5,1,5,610,AAAAA,+++++,+++++
1,1,5,1,5,681,++E++,+++++,+++++
1,6,1,1,1,431,++N++,+++++,++r++
1,12,1,1,1,604,++R++,++n++,++n++
1,1,5,1,5,1021,++A++,+++++,+++++
1,8,5,1,5,648,AAAAA,+++++,++a++
1,16,5,1,5,810,RRERR,++r++,++r++
1,14,5,1,5,681,AAAAA,++a++,++a++
1,3,1,1,1,688,RRNRR,+++++,+++++
1,1,1,1,1,872,++R++,+++++,+++++
1,7,1,1,1,681,++N++,+++++,++a++
1,12,5,1,5,541,++A++,++e++,++e++
1,6,5,1,5,511,++A++,+++++,++e++
1,1,5,1,5,1204,++E++,+++++,+++++
1,6,1,1,1,491,++R++,+++++,++n++
1,13,1,1,1,484,++R++,++e++,++e++
1,12,1,1,1,469,++N++,++r++,++r++
1,13,1,1,1,637,++N++,++a++,++a++
1,7,1,1,1,823,++N++,+++++,++e++
1,10,5,1,5,508,NNANN,+++++,++n++
1,1,5,1,5,676,++E++,+++++,+++++
1,1,5,1,5,590,++E++,+++++,+++++
1,9,1,1,1,812,RRNRR,+++++,++r++
1,10,5,1,5,567,RRERR,+++++,++r++
1,15,1,1,1,965,NNRNN,++n++,++n++
1,1,5,1,5,507,++A++,+++++,+++++
1,1,5,1,5,529,++A++,+++++,+++++
1,1,1,1,1,505,++R++,+++++,+++++
1,15,1,0,5,601,RRNRR,++r++,++r++
1,10,1,1,1,773,EENEE,+++++,++e++
1,1,1,1,1,932,++N++,+++++,+++++
1,13,5,1,5,769,++E++,++r++,++r++
1,9,1,1,1,695,NNRNN,+++++,++n++
1,1,1,1,1,612,++N++,+++++,+++++
1,5,1,1,1,533,++R++,+++++,++r++
1,7,5,1,5,638,++A++,+++++,++r++
1,16,1,1,1,730,AARAA,++a++,++a++
1,13,5,1,5,509,++E++,++n++,++n++
1,13,1,1,1,539,++R++,++a++,++a++
1,10,5,1,5,712,RRARR,+++++,++r++
1,1,1,1,1,550,++N++,+++++,+++++
1,9,5,1,5,1264,EEAEE,+++++,++e++
1,4,1,1,1,611,EENEE,+++++,+++++
1,1,5,0,1,517,++A++,+++++,+++++
1,16,1,1,1,799,EEREE,++e++,++e++
1,8,5,1,5,634,EEEEE,+++++,++e++
1,11,1,1,1,838,++N++,++n++,++n++
1,1,1,1,1,682,++N++,+++++,+++++
1,10,5,1,5,800,NNENN,+++++,++n++
1,15,5,1,5,627,EEAEE,++e++,++e++
1,5,5,1,5,587,++E++,+++++,++e++
1,6,5,1,5,480,++E++,+++++,++a++
1,3,1,1,1,448,NNRNN,+++++,+++++
1,16,5,1,5,671,RRARR,++r++,++r++
1,3,5,1,5,516,EEAEE,+++++,+++++
1,14,5,1,5,433,EEEEE,++e++,++e++
1,8,1,1,1,567,RRRRR,+++++,++r++
1,16,1,1,1,718,AANAA,++a++,++a++
1,16,1,1,1,741,EENEE,++e++,++e++
1,5,5,1,5,670,++E++,+++++,++e++
1,16,5,1,5,655,RRERR,++r++,++r++
1,10,1,1,1,761,EENEE,+++++,++e++
1,1,1,1,1,1154,++R++,+++++,+++++
1,10,5,1,5,1029,NNANN,+++++,++n++
1,3,5,1,5,516,EEAEE,+++++,+++++
1,4,5,1,5,535,RRERR,+++++,+++++
1,9,1,1,1,655,NNRNN,+++++,++n++
1,7,1,1,1,712,++N++,+++++,++e++
1,5,1,1,1,545,++R++,+++++,++r++
1,1,1,1,1,823,++N++,+++++,+++++
1,2,5,1,5,1091,AAAAA,+++++,+++++
1,14,1,1,1,547,NNNNN,++n++,++n++
1,13,5,1,5,855,++A++,++n++,++n++
1,9,1,1,1,722,RRNRR,+++++,++r++
1,13,1,1,1,1483,++R++,++a++,++a++
1,1,1,1,1,1182,++R++,+++++,+++++
1,8,1,1,1,529,RRRRR,+++++,++r++
1,15,1,1,1,765,RRNRR,++r++,++r++
1,7,1,1,1,598,++R++,+++++,++a++
1,7,5,1,5,593,++A++,+++++,++n++
1,16,5,1,5,434,RRARR,++r++,++r++
1,4,5,1,5,953,NNANN,+++++,+++++
1,14,5,1,5,383,EEEEE,++e++,++e++
1,4,1,1,1,842,AARAA,+++++,+++++
1,4,1,1,1,1268,EENEE,+++++,+++++
1,10,1,1,1,695,AANAA,+++++,++a++
1,8,1,1,1,742,NNNNN,+++++,++n++
1,12,5,1,5,563,++A++,++e++,++e++
1,4,1,1,1,818,EEREE,+++++,+++++
1,16,5,0,1,435,NNENN,++n++,++n++
1,1,1,1,1,1081,++R++,+++++,+++++
1,7,5,1,5,767,++E++,+++++,++n++
1,10,5,0,1,601,RRARR,+++++,++r++
1,10,1,1,1,779,EEREE,+++++,++e++
1,1,5,1,5,836,++A++,+++++,+++++
1,13,1,1,1,798,++N++,++e++,++e++
1,5,5,1,5,426,++A++,+++++,++a++
1,9,5,1,5,560,AAEAA,+++++,++a++
1,12,1,1,1,582,++R++,++n++,++n++
1,13,5,1,5,559,++A++,++r++,++r++
1,12,5,1,5,641,++E++,++a++,++a++
1,16,1,1,1,464,AANAA,++a++,++a++
1,16,1,1,1,563,AARAA,++a++,++a++
1,10,5,1,5,577,NNENN,+++++,++n++
1,11,5,1,5,554,++E++,++e++,++e++
1,6,1,1,1,713,++R++,+++++,++n++
1,2,1,0,5,498,RRRRR,+++++,+++++
1,4,5,1,5,762,NNENN,+++++,+++++
1,3,5,1,5,621,AAEAA,+++++,+++++
1,15,5,1,5,687,AAEAA,++a++,++a++
1,2,5,1,5,664,EEEEE,+++++,+++++
1,11,1,1,1,486,++R++,++r++,++r++
1,14,5,1,5,354,AAAAA,++a++,++a++
1,13,1,1,1,823,++R++,++e++,++e++
1,7,1,0,5,888,++R++,+++++,++e++
1,6,5,1,5,743,++A++,+++++,++e++
1,3,1,1,1,1061,RRNRR,+++++,+++++
1,1,5,1,5,696,++A++,+++++,+++++
1,8,5,1,5,467,EEEEE,+++++,++e++
1,13,5,1,5,633,++E++,++n++,++n++
1,1,1,1,1,1113,++N++,+++++,+++++
1,1,1,1,1,629,++N++,+++++,+++++
1,1,5,1,5,559,++E++,+++++,+++++
1,1,5,1,5,493,++A++,+++++,+++++
1,7,5,1,5,425,++A++,+++++,++r++
1,9,5,1,5,550,EEAEE,+++++,++e++
1,15,1,1,1,574,NNRNN,++n++,++n++
1,12,1,1,1,642,++N++,++r++,++r++
1,1,5,1,5,1090,++A++,+++++,+++++
1,4,5,1,5,515,RRARR,+++++,+++++
1,15,5,1,5,692,EEAEE,++e++,++e++
1,7,5,1,5,523,++E++,+++++,++r++
1,1,5,1,5,1117,++E++,+++++,+++++
1,16,1,1,1,568,EEREE,++e++,++e++
1,2,1,1,1,713,NNNNN,+++++,+++++
1,4,1,1,1,1412,AANAA,+++++,+++++
1,16,5,1,5,685,NNANN,++n++,++n++
1,1,1,1,1,1032,++N++,+++++,+++++
1,11,5,1,5,385,++A++,++a++,++a++
1,3,1,1,1,789,NNRNN,+++++,+++++
1,6,5,1,5,492,++E++,+++++,++a++
1,8,5,1,5,465,AAAAA,+++++,++a++
1,13,1,1,1,566,++N++,++a++,++a++
1,5,1,1,1,650,++N++,+++++,++n++
1,7,1,1,1,648,++N++,+++++,++a++
1,6,1,1,1,520,++N++,+++++,++r++
1,10,1,1,1,828,AARAA,+++++,++a++
1,11,1,1,1,628,++N++,++n++,++n++
1,10,5,1,5,671,RRERR,+++++,++r++
1,1,5,1,5,1107,++E++,+++++,+++++
1,1,1,1,1,1069,++R++,+++++,+++++
1,14,1,1,1,470,RRRRR,++r++,++r++
1,13,5,1,5,901,++E++,++r++,++r++
1,1,5,1,5,1005,++E++,+++++,+++++
1,1,5,1,5,829,++A++,+++++,+++++
1,7,5,1,5,484,++A++,+++++,++n++
1,11,1,1,1,458,++R++,++r++,++r++
1,16,5,1,5,672,RRARR,++r++,++r++
1,15,1,1,1,766,NNRNN,++n++,++n++
1,10,5,1,5,663,NNANN,+++++,++n++
1,10,1,1,1,959,AANAA,+++++,++a++
1,16,5,1,5,621,NNENN,++n++,++n++
1,3,1,0,5,835,RRNRR,+++++,+++++
1,1,1,1,1,671,++N++,+++++,+++++
1,16,1,1,1,670,EEREE,++e++,++e++
1,1,5,1,5,1341,++E++,+++++,+++++
1,1,1,1,1,517,++N++,+++++,+++++
1,14,1,1,1,1209,NNNNN,++n++,++n++
1,2,1,1,1,1366,NNNNN,+++++,+++++
1,13,1,1,1,441,++N++,++a++,++a++
1,13,5,1,5,535,++A++,++r++,++r++
1,7,1,1,1,702,++R++,+++++,++e++
1,8,5,1,5,556,AAAAA,+++++,++a++
1,1,5,1,5,1032,++A++,+++++,+++++
1,6,5,1,5,490,++A++,+++++,++e++
1,9,1,1,1,1020,NNRNN,+++++,++n++
1,15,5,1,5,502,EEAEE,++e++,++e++
1,1,5,1,5,595,++E++,+++++,+++++
1,12,5,1,5,573,++E++,++a++,++a++
1,11,5,1,5,420,++A++,++a++,++a++
1,4,5,1,5,585,NNANN,+++++,+++++
1,13,1,1,1,858,++R++,++a++,++a++
1,1,1,1,1,685,++R++,+++++,+++++
1,10,1,1,1,767,EEREE,+++++,++e++
1,12,1,1,1,459,++R++,++n++,++n++
1,1,5,1,5,952,++E++,+++++,+++++
1,4,1,1,1,597,AARAA,+++++,+++++
1,1,5,1,5,440,++E++,+++++,+++++
1,16,1,1,1,603,EENEE,++e++,++e++
1,1,1,1,1,976,++R++,+++++,+++++
1,10,5,1,5,727,NNENN,+++++,++n++
1,8,1,1,1,538,RRRRR,+++++,++r++
1,9,5,1,5,560,EEAEE,+++++,++e++
1,14,5,1,5,580,EEEEE,++e++,++e++
1,10,5,1,5,646,RRARR,+++++,++r++
1,1,5,1,5,986,++A++,+++++,+++++
1,4,1,1,1,729,EEREE,+++++,+++++
1,4,1,1,1,668,EENEE,+++++,+++++
1,7,5,1,5,810,++E++,+++++,++n++
1,4,5,1,5,894,NNENN,+++++,+++++
1,12,5,1,5,681,++A++,++e++,++e++
1,4,1,1,1,667,AANAA,+++++,+++++
1,1,1,1,1,870,++R++,+++++,+++++
1,5,5,1,5,411,++A++,+++++,++a++
1,7,5,1,5,649,++A++,+++++,++r++
1,8,1,1,1,504,NNNNN,+++++,++n++
1,15,1,1,1,802,RRNRR,++r++,++r++
1,16,1,1,1,648,AANAA,++a++,++a++
1,15,5,1,5,731,AAEAA,++a++,++a++
1,3,1,1,1,810,NNRNN,+++++,+++++
1,7,5,1,5,776,++E++,+++++,++r++
1,3,5,1,5,888,EEAEE,+++++,+++++
1,16,1,1,1,539,AARAA,++a++,++a++
1,12,1,1,1,617,++N++,++r++,++r++
1,13,5,1,5,551,++E++,++n++,++n++
1,10,1,1,1,737,EENEE,+++++,++e++
1,9,1,1,1,669,RRNRR,+++++,++r++
1,13,5,1,5,879,++E++,++r++,++r++
1,8,5,1,5,465,EEEEE,+++++,++e++
1,4,5,0,1,487,RRARR,+++++,+++++
1,5,1,1,1,617,++R++,+++++,++r++
1,14,1,1,1,570,RRRRR,++r++,++r++
1,6,1,1,1,1017,++N++,+++++,++r++
1,1,1,1,1,711,++R++,+++++,+++++
1,5,5,1,5,531,++E++,+++++,++e++
1,16,5,1,5,1203,RRERR,++r++,++r++
1,4,5,1,5,898,RRERR,+++++,+++++
1,5,1,1,1,575,++N++,+++++,++n++
1,1,5,1,5,483,++A++,+++++,+++++
1,7,1,1,1,559,++R++,+++++,++a++
1,3,5,1,5,553,AAEAA,+++++,+++++
1,13,1,1,1,438,++R++,++e++,++e++
1,6,5,1,5,433,++E++,+++++,++a++
1,2,5,1,5,444,EEEEE,+++++,+++++
1,14,5,1,5,422,AAAAA,++a++,++a++
1,13,5,1,5,605,++A++,++n++,++n++
1,11,1,1,1,605,++N++,++n++,++n++
1,10,5,1,5,634,RRERR,+++++,++r++
1,10,1,1,1,653,AARAA,+++++,++a++
1,6,1,1,1,794,++R++,+++++,++n++
1,2,5,1,5,596,AAAAA,+++++,+++++
1,16,5,1,5,444,NNANN,++n++,++n++
1,2,1,1,1,559,RRRRR,+++++,+++++
1,1,1,1,1,569,++N++,+++++,+++++
1,7,1,1,1,550,++N++,+++++,++a++
1,11,5,1,5,442,++E++,++e++,++e++
1,13,1,1,1,664,++N++,++e++,++e++
1,7,1,1,1,836,++N++,+++++,++e++
1,1,1,1,1,819,++N++,+++++,+++++
1,9,5,1,5,603,AAEAA,+++++,++a++
1,1,5,1,5,674,++E++,+++++,+++++
1,13,5,1,5,499,++E++,++n++,++n++
1,4,1,1,1,625,AANAA,+++++,+++++
1,9,1,1,1,778,NNRNN,+++++,++n++
1,10,5,1,5,766,RRARR,+++++,++r++
1,12,1,1,1,763,++N++,++r++,++r++
1,13,1,1,1,580,++N++,++a++,++a++
1,5,5,1,5,490,++E++,+++++,++e++
1,10,5,0,1,633,RRERR,+++++,++r++
1,11,1,1,1,785,++R++,++r++,++r++
1,1,1,1,1,1013,++R++,+++++,+++++
1,9,5,1,5,467,EEAEE,+++++,++e++
1,7,5,1,5,467,++A++,+++++,++n++
1,6,5,0,1,752,++E++,+++++,++a++
1,9,1,1,1,1033,RRNRR,+++++,++r++
1,4,1,1,1,721,EENEE,+++++,+++++
1,16,1,1,1,612,AANAA,++a++,++a++
1,13,1,1,1,752,++R++,++a++,++a++
1,14,1,1,1,795,NNNNN,++n++,++n++
1,13,5,1,5,956,++A++,++r++,++r++
1,1,5,1,5,876,++A++,+++++,+++++
1,2,1,1,1,620,RRRRR,+++++,+++++
1,13,5,1,5,634,++A++,++n++,++n++
1,8,1,1,1,470,RRRRR,+++++,++r++
1,1,5,1,5,1146,++A++,+++++,+++++
1,14,5,1,5,395,AAAAA,++a++,++a++
1,7,5,0,1,525,++E++,+++++,++n++
1,13,1,1,1,525,++R++,++e++,++e++
1,16,5,1,5,1106,RRARR,++r++,++r++
1,16,5,1,5,1489,NNENN,++n++,++n++
1,7,5,1,5,1001,++A++,+++++,++r++
1,4,5,1,5,862,RRARR,+++++,+++++
1,11,1,1,1,540,++N++,++n++,++n++
1,15,5,1,5,544,AAEAA,++a++,++a++
1,1,1,1,1,499,++N++,+++++,+++++
1,1,1,1,1,620,++R++,+++++,+++++
1,10,1,1,1,782,AANAA,+++++,++a++
1,12,5,1,5,558,++A++,++e++,++e++
1,14,5,1,5,561,EEEEE,++e++,++e++
1,2,1,1,1,584,NNNNN,+++++,+++++
1,15,1,1,1,557,RRNRR,++r++,++r++
1,5,1,1,1,599,++N++,+++++,++n++
1,3,1,1,1,529,RRNRR,+++++,+++++
1,1,5,0,1,493,++A++,+++++,+++++
1,3,5,1,5,764,AAEAA,+++++,+++++
1,14,1,0,5,581,RRRRR,++r++,++r++
1,10,5,1,5,1047,NNANN,+++++,++n++
1,1,1,1,1,795,++R++,+++++,+++++
1,4,1,1,1,1391,AARAA,+++++,+++++
1,13,5,1,5,571,++E++,++r++,++r++
1,1,1,1,1,1231,++N++,+++++,+++++
1,10,5,1,5,705,NNENN,+++++,++n++
1,11,5,1,5,433,++E++,++e++,++e++
1,16,1,1,1,668,AARAA,++a++,++a++
1,7,1,1,1,749,++N++,+++++,++e++
1,11,5,1,5,324,++A++,++a++,++a++
1,12,1,1,1,768,++R++,++n++,++n++
1,7,1,1,1,821,++N++,+++++,++a++
1,4,5,1,5,548,NNANN,+++++,+++++
1,12,5,1,5,810,++E++,++a++,++a++
1,2,5,1,5,649,EEEEE,+++++,+++++
1,10,1,1,1,577,EENEE,+++++,++e++
1,16,1,1,1,559,EEREE,++e++,++e++
1,9,5,1,5,493,AAEAA,+++++,++a++
1,8,5,1,5,475,EEEEE,+++++,++e++
1,1,5,1,5,834,++E++,+++++,+++++
1,1,5,1,5,672,++E++,+++++,+++++
1,4,5,1,5,550,NNENN,+++++,+++++
1,7,5,1,5,428,++E++,+++++,++r++
1,10,1,1,1,891,AARAA,+++++,++a++
1,13,1,1,1,511,++N++,++e++,++e++
1,16,5,1,5,538,RRERR,++r++,++r++
1,2,5,1,5,616,AAAAA,+++++,+++++
1,1,5,1,5,1078,++E++,+++++,+++++
1,4,5,1,5,660,RRERR,+++++,+++++
1,6,5,1,5,432,++A++,+++++,++e++
1,15,5,1,5,615,EEAEE,++e++,++e++
1,4,1,1,1,715,EEREE,+++++,+++++
1,7,1,1,1,632,++R++,+++++,++e++
1,1,1,1,1,576,++N++,+++++,+++++
1,5,5,1,5,503,++A++,+++++,++a++
1,1,1,1,1,595,++N++,+++++,+++++
1,10,1,1,1,1064,EEREE,+++++,++e++
1,5,1,1,1,1109,++R++,+++++,++r++
1,7,1,1,1,678,++R++,+++++,++a++
1,8,1,1,1,689,NNNNN,+++++,++n++
1,1,5,1,5,613,++A++,+++++,+++++
1,16,1,1,1,617,EENEE,++e++,++e++
1,6,1,1,1,1227,++R++,+++++,++n++
1,6,1,1,1,708,++N++,+++++,++r++
1,3,1,0,5,581,NNRNN,+++++,+++++
1,3,5,1,5,649,EEAEE,+++++,+++++
1,15,1,1,1,625,NNRNN,++n++,++n++
1,16,5,1,5,585,NNANN,++n++,++n++
1,8,5,1,5,589,AAAAA,+++++,++a++
1,1,1,1,1,1320,++R++,+++++,+++++
1,14,5,1,5,395,AAAAA,++a++,++a++
1,4,1,1,1,626,AARAA,+++++,+++++
1,9,5,1,5,565,EEAEE,+++++,++e++
1,13,5,1,5,649,++E++,++r++,++r++
1,3,1,1,1,699,NNRNN,+++++,+++++
1,16,5,1,5,521,NNENN,++n++,++n++
1,6,5,1,5,494,++A++,+++++,++e++
1,4,1,1,1,1260,EENEE,+++++,+++++
1,2,1,1,1,610,RRRRR,+++++,+++++
1,4,5,1,5,715,RRARR,+++++,+++++
1,7,1,1,1,605,++R++,+++++,++a++
1,1,5,1,5,497,++A++,+++++,+++++
1,13,5,1,5,430,++A++,++n++,++n++
1,10,1,1,1,718,AANAA,+++++,++a++
1,10,5,1,5,778,NNENN,+++++,++n++
1,1,5,1,5,880,++E++,+++++,+++++
1,11,1,1,1,568,++R++,++r++,++r++
1,16,5,1,5,462,RRERR,++r++,++r++
1,1,5,1,5,825,++A++,+++++,+++++
1,4,1,1,1,569,AANAA,+++++,+++++
1,8,5,1,5,452,AAAAA,+++++,++a++
1,1,1,1,1,722,++R++,+++++,+++++
1,15,5,1,5,814,EEAEE,++e++,++e++
1,14,1,1,1,538,RRRRR,++r++,++r++
1,7,5,1,5,526,++A++,+++++,++r++
1,10,1,1,1,552,EENEE,+++++,++e++
1,15,1,1,1,515,RRNRR,++r++,++r++
1,6,1,1,1,930,++N++,+++++,++r++
1,1,1,1,1,573,++R++,+++++,+++++
1,12,5,1,5,519,++E++,++a++,++a++
1,10,5,1,5,765,NNANN,+++++,++n++
1,6,1,1,1,684,++R++,+++++,++n++
1,5,5,1,5,583,++A++,+++++,++a++
1,7,1,1,1,573,++R++,+++++,++e++
1,16,1,1,1,501,EENEE,++e++,++e++
1,8,1,1,1,605,NNNNN,+++++,++n++
1,12,1,1,1,777,++N++,++r++,++r++
1,13,1,1,1,493,++N++,++a++,++a++
1,10,5,1,5,590,RRERR,+++++,++r++
1,1,5,1,5,1072,++E++,+++++,+++++
1,3,5,1,5,535,EEAEE,+++++,+++++
1,10,5,1,5,833,RRARR,+++++,++r++
1,12,1,1,1,526,++R++,++n++,++n++
1,11,5,1,5,632,++A++,++a++,++a++
1,1,1,1,1,771,++R++,+++++,+++++
1,16,5,1,5,468,RRARR,++r++,++r++
1,14,1,1,1,597,NNNNN,++n++,++n++
1,8,1,1,1,739,RRRRR,+++++,++r++
1,5,1,1,1,605,++R++,+++++,++r++
1,1,1,1,1,936,++N++,+++++,+++++
1,4,5,1,5,691,RRERR,+++++,+++++
1,1,5,0,1,508,++A++,+++++,+++++
1,9,1,1,1,828,NNRNN,+++++,++n++
1,15,1,1,1,859,NNRNN,++n++,++n++
1,12,5,1,5,368,++A++,++e++,++e++
1,10,1,1,1,642,EEREE,+++++,++e++
1,7,5,1,5,749,++E++,+++++,++n++
1,4,5,1,5,609,NNANN,+++++,+++++
1,4,1,1,1,854,EEREE,+++++,+++++
1,7,5,1,5,502,++E++,+++++,++r++
1,1,5,1,5,986,++E++,+++++,+++++
1,1,1,1,1,573,++R++,+++++,+++++
1,6,5,1,5,565,++E++,+++++,++a++
1,4,5,1,5,1067,NNENN,+++++,+++++
1,16,5,1,5,517,NNANN,++n++,++n++
1,1,5,1,5,505,++E++,+++++,+++++
1,7,5,1,5,633,++A++,+++++,++n++
1,11,5,1,5,684,++E++,++e++,++e++
1,8,5,1,5,499,EEEEE,+++++,++e++
1,1,1,1,1,531,++N++,+++++,+++++
1,5,1,1,1,602,++N++,+++++,++n++
1,3,5,1,5,875,AAEAA,+++++,+++++
1,14,5,1,5,391,EEEEE,++e++,++e++
1,9,1,1,1,575,RRNRR,+++++,++r++
1,13,1,1,1,570,++R++,++e++,++e++
1,2,1,1,1,719,NNNNN,+++++,+++++
1,2,5,1,5,627,EEEEE,+++++,+++++
1,10,1,1,1,680,AARAA,+++++,++a++
1,1,1,1,1,681,++N++,+++++,+++++
1,1,1,1,1,414,++N++,+++++,+++++
1,13,1,1,1,679,++N++,++e++,++e++
1,2,5,1,5,525,AAAAA,+++++,+++++
1,7,1,1,1,578,++N++,+++++,++e++
1,16,1,1,1,608,EEREE,++e++,++e++
1,1,5,1,5,912,++A++,+++++,+++++
1,7,1,1,1,529,++N++,+++++,++a++
1,16,1,1,1,718,AARAA,++a++,++a++
1,3,1,1,1,624,RRNRR,+++++,+++++
1,13,5,1,5,524,++A++,++r++,++r++
1,9,5,1,5,628,AAEAA,+++++,++a++
1,11,1,1,1,922,++N++,++n++,++n++
1,15,5,1,5,542,AAEAA,++a++,++a++
1,5,5,0,1,583,++E++,+++++,++e++
1,13,1,1,1,825,++R++,++a++,++a++
1,13,5,1,5,589,++E++,++n++,++n++
1,16,1,1,1,971,AANAA,++a++,++a++
1,1,5,1,5,565,++A++,+++++,+++++
1,5,1,1,1,497,++N++,+++++,++n++
1,9,5,1,5,537,EEAEE,+++++,++e++
1,15,1,1,1,643,NNRNN,++n++,++n++
1,16,5,1,5,1114,RRARR,++r++,++r++
1,5,1,1,1,649,++R++,+++++,++r++
1,7,1,1,1,658,++R++,+++++,++a++
1,1,1,1,1,527,++R++,+++++,+++++
1,7,5,1,5,550,++A++,+++++,++r++
1,6,1,1,1,1013,++N++,+++++,++r++
1,16,1,1,1,705,AARAA,++a++,++a++
1,15,5,1,5,641,AAEAA,++a++,++a++
1,10,1,1,1,636,EENEE,+++++,++e++
1,4,1,1,1,677,AARAA,+++++,+++++
1,4,5,1,5,797,NNANN,+++++,+++++
1,11,1,1,1,623,++R++,++r++,++r++
1,15,1,1,1,847,RRNRR,++r++,++r++
1,13,5,1,5,1019,++A++,++r++,++r++
1,6,5,1,5,464,++A++,+++++,++e++
1,7,5,1,5,501,++A++,+++++,++n++
1,1,5,1,5,550,++E++,+++++,+++++
1,9,5,1,5,570,AAEAA,+++++,++a++
1,1,5,1,5,535,++A++,+++++,+++++
1,3,5,1,5,1078,AAEAA,+++++,+++++
1,10,5,1,5,608,RRERR,+++++,++r++
1,1,1,1,1,609,++R++,+++++,+++++
1,7,5,1,5,690,++E++,+++++,++n++
1,7,5,1,5,490,++E++,+++++,++r++
1,10,1,1,1,750,AARAA,+++++,++a++
1,1,5,1,5,915,++E++,+++++,+++++
1,8,1,1,1,526,NNNNN,+++++,++n++
1,1,5,1,5,937,++A++,+++++,+++++
1,1,5,1,5,663,++E++,+++++,+++++
1,10,1,1,1,828,AANAA,+++++,++a++
1,13,1,1,1,662,++N++,++e++,++e++
1,4,5,1,5,1127,NNENN,+++++,+++++
1,2,1,1,1,820,RRRRR,+++++,+++++
1,8,5,1,5,922,AAAAA,+++++,++a++
1,11,5,1,5,381,++A++,++a++,++a++
1,6,5,1,5,579,++E++,+++++,++a++
1,14,1,1,1,452,RRRRR,++r++,++r++
1,3,1,1,1,706,RRNRR,+++++,+++++
1,16,5,1,5,403,NNANN,++n++,++n++
1,10,1,1,1,981,EEREE,+++++,++e++
1,12,5,1,5,544,++A++,++e++,++e++
1,6,1,1,1,607,++R++,+++++,++n++
1,1,1,1,1,1144,++N++,+++++,+++++
1,14,5,1,5,431,AAAAA,++a++,++a++
1,4,1,1,1,850,AANAA,+++++,+++++
1,16,1,1,1,661,EENEE,++e++,++e++
1,5,5,1,5,476,++A++,+++++,++a++
1,16,1,1,1,516,EEREE,++e++,++e++
1,1,1,1,1,1084,++N++,+++++,+++++
1,16,5,1,5,875,NNENN,++n++,++n++
1,13,1,1,1,456,++R++,++a++,++a++
1,1,1,1,1,939,++R++,+++++,+++++
1,1,1,1,1,467,++R++,+++++,+++++
1,13,5,1,5,621,++A++,++n++,++n++
1,11,5,1,5,476,++E++,++e++,++e++
1,14,1,1,1,429,NNNNN,++n++,++n++
1,4,5,1,5,668,RRERR,+++++,+++++
1,16,1,1,1,570,AANAA,++a++,++a++
1,4,5,1,5,1466,RRARR,+++++,+++++
1,2,5,1,5,442,AAAAA,+++++,+++++
1,10,5,1,5,877,NNANN,+++++,++n++
1,11,1,1,1,1096,++N++,++n++,++n++
1,16,5,1,5,748,RRERR,++r++,++r++
1,4,1,1,1,611,EEREE,+++++,+++++
1,8,1,1,1,632,RRRRR,+++++,++r++
1,13,1,1,1,488,++N++,++a++,++a++
1,4,1,1,1,718,EENEE,+++++,+++++
1,2,1,1,1,907,NNNNN,+++++,+++++
1,13,5,1,5,739,++E++,++r++,++r++
1,12,1,1,1,601,++N++,++r++,++r++
1,10,5,1,5,670,NNENN,+++++,++n++
1,1,1,1,1,1569,++N++,+++++,+++++
1,2,5,1,5,581,EEEEE,+++++,+++++
1,1,5,1,5,712,++A++,+++++,+++++
1,10,5,1,5,643,RRARR,+++++,++r++
1,1,1,1,1,658,++N++,+++++,+++++
1,7,1,1,1,561,++N++,+++++,++e++
1,12,5,1,5,470,++E++,++a++,++a++
1,13,5,1,5,572,++E++,++n++,++n++
1,5,5,1,5,491,++E++,+++++,++e++
1,1,5,1,5,948,++E++,+++++,+++++
1,15,5,1,5,922,EEAEE,++e++,++e++
1,9,1,1,1,668,RRNRR,+++++,++r++
1,9,1,1,1,661,NNRNN,+++++,++n++
1,14,5,1,5,460,EEEEE,++e++,++e++
1,3,5,1,5,737,EEAEE,+++++,+++++
1,13,1,1,1,630,++R++,++e++,++e++
1,7,1,1,1,867,++R++,+++++,++e++
1,7,1,1,1,530,++N++,+++++,++a++
1,12,1,1,1,1388,++R++,++n++,++n++
1,8,5,1,5,639,EEEEE,+++++,++e++
1,3,1,1,1,605,NNRNN,+++++,+++++
1,8,1,1,1,536,RRRRR,+++++,++r++
1,16,5,1,5,544,NNENN,++n++,++n++
1,14,5,1,5,339,AAAAA,++a++,++a++
1,15,5,1,5,466,EEAEE,++e++,++e++
1,7,5,1,5,683,++A++,+++++,++n++
1,10,5,1,5,574,NNANN,+++++,++n++
1,13,5,1,5,629,++A++,++r++,++r++
1,16,1,1,1,668,AANAA,++a++,++a++
1,4,1,1,1,819,AARAA,+++++,+++++
1,9,5,1,5,1236,EEAEE,+++++,++e++
1,5,5,1,5,513,++E++,+++++,++e++
1,1,5,1,5,542,++E++,+++++,+++++
1,1,1,1,1,443,++R++,+++++,+++++
1,16,1,1,1,628,EENEE,++e++,++e++
1,14,1,1,1,610,RRRRR,++r++,++r++
1,1,1,1,1,1483,++R++,+++++,+++++
1,1,1,1,1,603,++N++,+++++,+++++
1,9,1,1,1,667,NNRNN,+++++,++n++
1,8,5,1,5,824,AAAAA,+++++,++a++
1,6,1,1,1,646,++R++,+++++,++n++
1,4,1,1,1,751,EEREE,+++++,+++++
1,10,1,1,1,576,AANAA,+++++,++a++
1,2,5,1,5,534,EEEEE,+++++,+++++
1,2,1,1,1,718,NNNNN,+++++,+++++
1,15,5,1,5,819,AAEAA,++a++,++a++
1,10,5,1,5,1325,RRARR,+++++,++r++
1,3,1,1,1,869,RRNRR,+++++,+++++
1,2,1,1,1,621,RRRRR,+++++,+++++
1,9,1,1,1,692,RRNRR,+++++,++r++
1,3,5,1,5,642,AAEAA,+++++,+++++
1,16,1,1,1,555,EEREE,++e++,++e++
1,1,1,1,1,912,++N++,+++++,+++++
1,10,1,1,1,698,EENEE,+++++,++e++
1,5,1,1,1,514,++N++,+++++,++n++
1,1,5,1,5,792,++A++,+++++,+++++
1,7,1,1,1,743,++R++,+++++,++a++
1,16,1,1,1,612,AARAA,++a++,++a++
1,10,1,1,1,571,AARAA,+++++,++a++
1,5,5,1,5,1029,++A++,+++++,++a++
1,3,5,1,5,447,EEAEE,+++++,+++++
1,1,1,1,1,668,++N++,+++++,+++++
1,1,5,1,5,434,++E++,+++++,+++++
1,1,1,1,1,901,++R++,+++++,+++++
1,14,5,1,5,336,EEEEE,++e++,++e++
1,7,1,1,1,514,++N++,+++++,++a++
1,11,5,1,5,350,++E++,++e++,++e++
1,10,5,1,5,780,NNENN,+++++,++n++
1,12,1,1,1,1464,++N++,++r++,++r++
1,10,5,1,5,768,RRERR,+++++,++r++
1,1,5,1,5,797,++E++,+++++,+++++
1,6,5,1,5,393,++E++,+++++,++a++
1,6,1,1,1,549,++N++,+++++,++r++
1,16,5,1,5,581,NNANN,++n++,++n++
1,13,1,1,1,472,++R++,++a++,++a++
1,13,5,1,5,631,++E++,++n++,++n++
1,7,5,1,5,565,++A++,+++++,++r++
1,1,1,1,1,555,++R++,+++++,+++++
1,4,1,1,1,753,AANAA,+++++,+++++
1,15,1,1,1,686,NNRNN,++n++,++n++
1,14,1,0,5,477,NNNNN,++n++,++n++
1,11,1,0,5,478,++N++,++n++,++n++
1,13,1,1,1,561,++R++,++e++,++e++
1,7,1,1,1,690,++N++,+++++,++e++
1,16,5,0,1,550,RRARR,++r++,++r++
1,4,5,1,5,680,NNANN,+++++,+++++
1,12,1,1,1,998,++R++,++n++,++n++
1,2,5,1,5,988,AAAAA,+++++,+++++
1,16,5,1,5,847,RRERR,++r++,++r++
1,13,1,1,1,728,++N++,++a++,++a++
1,11,5,0,1,1411,++A++,++a++,++a++
1,1,5,1,5,1142,++E++,+++++,+++++
1,8,5,1,5,509,EEEEE,+++++,++e++
1,4,5,1,5,1150,RRERR,+++++,+++++
1,10,1,1,1,632,EEREE,+++++,++e++
1,1,5,1,5,673,++A++,+++++,+++++
1,6,5,1,5,434,++A++,+++++,++e++
1,4,1,1,1,622,EENEE,+++++,+++++
1,13,1,1,1,490,++N++,++e++,++e++
1,7,5,1,5,486,++E++,+++++,++n++
1,7,5,1,5,465,++E++,+++++,++r++
1,1,1,1,1,971,++N++,+++++,+++++
1,1,5,1,5,475,++A++,+++++,+++++
1,12,5,1,5,452,++E++,++a++,++a++
1,11,1,1,1,379,++R++,++r++,++r++
1,5,1,1,1,448,++R++,+++++,++r++
1,8,1,1,1,600,NNNNN,+++++,++n++
1,9,5,1,5,678,AAEAA,+++++,++a++
1,13,5,0,1,908,++A++,++n++,++n++
1,15,1,1,1,511,RRNRR,++r++,++r++
1,13,5,1,5,598,++E++,++r++,++r++
1,3,1,1,1,887,NNRNN,+++++,+++++
1,12,5,1,5,323,++A++,++e++,++e++
1,4,5,1,5,491,RRARR,+++++,+++++
1,7,1,1,1,668,++R++,+++++,++e++
1,1,5,1,5,446,++A++,+++++,+++++
1,4,5,1,5,564,NNENN,+++++,+++++
2,7,5,1,5,491,++N++,+++++,++e++
2,4,5,0,1,459,AARAA,+++++,+++++
2,1,5,1,5,444,++R++,+++++,+++++
2,13,1,0,5,275,++E++,++r++,++r++
2,14,5,1,5,124,NNNNN,++n++,++n++
2,3,1,1,1,498,AAEAA,+++++,+++++
2,12,5,1,5,254,++R++,++n++,++n++
2,13,5,1,5,549,++N++,++e++,++e++
2,9,5,1,5,429,RRNRR,+++++,++r++
2,10,1,0,5,443,NNANN,+++++,++n++
2,1,5,1,5,888,++R++,+++++,+++++
2,1,1,1,1,494,++E++,+++++,+++++
2,13,1,0,5,128,++E++,++n++,++n++
2,14,1,1,1,555,AAAAA,++a++,++a++
2,7,1,1,1,1435,++E++,+++++,++r++
2,1,5,1,5,434,++R++,+++++,+++++
2,1,1,1,1,745,++E++,+++++,+++++
2,1,1,1,1,499,++A++,+++++,+++++
2,8,1,1,1,304,AAAAA,+++++,++a++
2,4,5,0,1,911,EEREE,+++++,+++++
2,4,1,0,5,510,RRERR,+++++,+++++
2,10,1,0,5,662,NNENN,+++++,++n++
2,15,1,1,1,224,EEAEE,++e++,++e++
2,16,1,0,5,392,NNANN,++n++,++n++
2,14,1,1,1,436,EEEEE,++e++,++e++
2,11,1,1,1,80,++A++,++a++,++a++
2,9,1,1,1,410,AAEAA,+++++,++a++
2,11,5,1,5,364,++N++,++n++,++n++
2,10,5,0,1,386,AARAA,+++++,++a++
2,12,5,1,5,500,++N++,++r++,++r++
2,9,5,1,5,389,NNRNN,+++++,++n++
2,4,1,1,1,360,RRARR,+++++,+++++
2,5,1,1,1,737,++A++,+++++,++a++
2,1,1,1,1,746,++E++,+++++,+++++
2,7,1,1,1,618,++A++,+++++,++r++
2,12,1,1,1,61,++E++,++a++,++a++
2,6,1,1,1,358,++E++,+++++,++a++
2,8,5,1,5,397,RRRRR,+++++,++r++
2,5,5,1,5,319,++N++,+++++,++n++
2,12,1,1,1,309,++A++,++e++,++e++
2,9,1,0,5,366,EEAEE,+++++,++e++
2,4,5,0,1,403,EENEE,+++++,+++++
2,11,5,1,5,190,++R++,++r++,++r++
2,1,5,1,5,410,++N++,+++++,+++++
2,13,5,0,1,294,++N++,++a++,++a++
2,13,1,0,5,90,++A++,++r++,++r++
2,7,5,1,5,433,++R++,+++++,++e++
2,6,1,1,1,506,++A++,+++++,++e++
2,4,5,0,1,495,AANAA,+++++,+++++
2,1,1,1,1,571,++A++,+++++,+++++
2,8,1,1,1,453,EEEEE,+++++,++e++
2,14,5,1,5,1015,RRRRR,++r++,++r++
2,2,1,1,1,380,AAAAA,+++++,+++++
2,2,5,1,5,489,NNNNN,+++++,+++++
2,15,5,1,5,75,NNRNN,++n++,++n++
2,16,1,0,5,509,RRARR,++r++,++r++
2,2,5,1,5,469,RRRRR,+++++,+++++
2,7,5,0,1,458,++R++,+++++,++a++
2,1,1,1,1,612,++E++,+++++,+++++
2,13,1,1,1,523,++A++,++n++,++n++
2,3,5,1,5,450,RRNRR,+++++,+++++
2,1,5,1,5,978,++N++,+++++,+++++
2,7,1,1,1,572,++E++,+++++,++n++
2,1,1,1,1,699,++A++,+++++,+++++
2,10,1,1,1,475,RRARR,+++++,++r++
2,10,5,1,5,470,AANAA,+++++,++a++
2,13,5,0,1,204,++R++,++a++,++a++
2,7,5,1,5,488,++N++,+++++,++a++
2,16,5,0,1,144,AARAA,++a++,++a++
2,2,1,1,1,484,EEEEE,+++++,+++++
2,11,1,1,1,311,++E++,++e++,++e++
2,16,1,0,5,499,NNENN,++n++,++n++
2,16,5,0,1,183,AANAA,++a++,++a++
2,16,1,0,5,509,RRERR,++r++,++r++
2,5,1,1,1,359,++E++,+++++,++e++
2,3,1,1,1,557,EEAEE,+++++,+++++
2,16,5,0,1,304,EEREE,++e++,++e++
2,3,5,1,5,429,NNRNN,+++++,+++++
2,10,5,0,1,445,EEREE,+++++,++e++
2,6,5,1,5,373,++R++,+++++,++n++
2,10,5,1,5,432,EENEE,+++++,++e++
2,8,5,1,5,345,NNNNN,+++++,++n++
2,7,1,1,1,700,++A++,+++++,++n++
2,10,1,0,5,337,RRERR,+++++,++r++
2,1,1,1,1,548,++A++,+++++,+++++
2,1,5,1,5,624,++N++,+++++,+++++
2,6,5,0,1,635,++N++,+++++,++r++
2,1,5,1,5,440,++N++,+++++,+++++
2,4,1,1,1,397,NNENN,+++++,+++++
2,1,5,1,5,464,++R++,+++++,+++++
2,5,5,1,5,446,++R++,+++++,++r++
2,16,5,0,1,695,EENEE,++e++,++e++
2,15,1,1,1,295,AAEAA,++a++,++a++
2,4,1,0,5,538,NNANN,+++++,+++++
2,13,5,0,1,213,++R++,++e++,++e++
2,15,5,1,5,320,RRNRR,++r++,++r++
2,9,5,1,5,453,RRNRR,+++++,++r++
2,8,1,1,1,371,EEEEE,+++++,++e++
2,1,5,1,5,420,++N++,+++++,+++++
2,5,1,1,1,389,++A++,+++++,++a++
2,9,1,1,1,655,AAEAA,+++++,++a++
2,7,1,1,1,537,++A++,+++++,++r++
2,6,5,1,5,694,++N++,+++++,++r++
2,4,1,0,5,584,NNANN,+++++,+++++
2,2,5,1,5,419,NNNNN,+++++,+++++
2,10,1,0,5,541,RRERR,+++++,++r++
2,14,1,1,1,200,AAAAA,++a++,++a++
2,16,1,0,5,28,RRERR,++r++,++r++
2,13,5,0,1,110,++N++,++e++,++e++
2,14,5,1,5,245,RRRRR,++r++,++r++
2,5,5,1,5,325,++N++,+++++,++n++
2,10,5,0,1,390,EEREE,+++++,++e++
2,7,5,1,5,494,++N++,+++++,++e++
2,1,1,1,1,456,++A++,+++++,+++++
2,12,1,1,1,479,++E++,++a++,++a++
2,14,5,1,5,198,NNNNN,++n++,++n++
2,15,1,1,1,226,EEAEE,++e++,++e++
2,15,1,1,1,297,AAEAA,++a++,++a++
2,7,5,1,5,443,++R++,+++++,++a++
2,4,5,0,1,423,AARAA,+++++,+++++
2,13,1,0,5,87,++E++,++n++,++n++
2,1,1,1,1,673,++A++,+++++,+++++
2,3,1,1,1,499,AAEAA,+++++,+++++
2,12,5,1,5,47,++N++,++r++,++r++
2,7,1,1,1,606,++E++,+++++,++r++
2,16,5,0,1,308,EENEE,++e++,++e++
2,1,5,1,5,441,++N++,+++++,+++++
2,15,5,1,5,136,RRNRR,++r++,++r++
2,16,5,0,1,545,AANAA,++a++,++a++
2,6,5,1,5,446,++R++,+++++,++n++
2,11,5,1,5,238,++N++,++n++,++n++
2,12,1,1,1,123,++A++,++e++,++e++
2,10,1,0,5,376,NNANN,+++++,++n++
2,13,5,1,5,424,++R++,++a++,++a++
2,16,1,1,1,364,RRARR,++r++,++r++
2,9,5,1,5,450,NNRNN,+++++,++n++
2,8,5,1,5,416,NNNNN,+++++,++n++
2,12,5,1,5,500,++R++,++n++,++n++
2,1,1,1,1,789,++A++,+++++,+++++
2,10,1,0,5,539,RRARR,+++++,++r++
2,1,5,1,5,470,++R++,+++++,+++++
2,13,5,1,5,345,++R++,++e++,++e++
2,3,5,1,5,460,NNRNN,+++++,+++++
2,5,1,1,1,500,++E++,+++++,++e++
2,1,1,1,1,509,++E++,+++++,+++++
2,10,1,0,5,556,NNENN,+++++,++n++
2,9,1,1,1,534,EEAEE,+++++,++e++
2,13,1,1,1,434,++A++,++n++,++n++
2,4,1,0,5,453,RRERR,+++++,+++++
2,1,5,1,5,428,++R++,+++++,+++++
2,7,5,1,5,434,++R++,+++++,++e++
2,4,5,0,1,503,AANAA,+++++,+++++
2,14,1,1,1,505,EEEEE,++e++,++e++
2,10,5,0,1,561,AANAA,+++++,++a++
2,16,1,0,5,298,NNANN,++n++,++n++
2,4,5,0,1,462,EEREE,+++++,+++++
2,16,5,0,1,394,AARAA,++a++,++a++
2,1,5,1,5,882,++R++,+++++,+++++
2,13,1,1,1,363,++E++,++r++,++r++
2,16,5,1,5,639,EEREE,++e++,++e++
2,1,5,1,5,675,++N++,+++++,+++++
2,10,5,0,1,613,EENEE,+++++,++e++
2,11,5,1,5,603,++R++,++r++,++r++
2,4,5,0,1,549,EENEE,+++++,+++++
2,7,5,1,5,505,++N++,+++++,++a++
2,11,1,1,1,358,++E++,++e++,++e++
2,7,1,0,5,381,++A++,+++++,++n++
2,4,1,0,5,507,NNENN,+++++,+++++
2,15,5,1,5,442,NNRNN,++n++,++n++
2,3,1,1,1,433,EEAEE,+++++,+++++
2,4,1,0,5,463,RRARR,+++++,+++++
2,6,1,1,1,428,++A++,+++++,++e++
2,11,1,1,1,368,++A++,++a++,++a++
2,1,1,1,1,445,++A++,+++++,+++++
2,8,1,1,1,405,AAAAA,+++++,++a++
2,2,1,1,1,447,EEEEE,+++++,+++++
2,8,5,1,5,431,RRRRR,+++++,++r++
2,6,1,1,1,433,++E++,+++++,++a++
2,2,5,1,5,425,RRRRR,+++++,+++++
2,1,5,1,5,377,++R++,+++++,+++++
2,1,1,1,1,425,++E++,+++++,+++++
2,13,5,1,5,395,++N++,++a++,++a++
2,16,1,0,5,580,NNENN,++n++,++n++
2,13,1,1,1,351,++A++,++r++,++r++
2,7,1,1,1,497,++E++,+++++,++n++
2,2,1,1,1,435,AAAAA,+++++,+++++
2,5,5,1,5,404,++R++,+++++,++r++
2,1,1,1,1,406,++E++,+++++,+++++
2,1,1,1,1,565,++E++,+++++,+++++
2,1,5,1,5,405,++N++,+++++,+++++
2,10,5,0,1,453,AARAA,+++++,++a++
2,3,5,1,5,518,RRNRR,+++++,+++++
2,2,5,1,5,413,RRRRR,+++++,+++++
2,14,1,1,1,967,AAAAA,++a++,++a++
2,4,1,0,5,359,RRARR,+++++,+++++
2,10,1,0,5,375,RRARR,+++++,++r++
2,2,1,1,1,407,AAAAA,+++++,+++++
2,15,5,1,5,68,RRNRR,++r++,++r++
2,10,1,0,5,708,RRERR,+++++,++r++
2,5,5,1,5,634,++R++,+++++,++r++
2,1,5,1,5,2007,++R++,+++++,+++++
2,14,5,1,5,494,RRRRR,++r++,++r++
2,1,1,1,1,1027,++A++,+++++,+++++
2,16,5,0,1,2289,AANAA,++a++,++a++
2,12,5,1,5,955,++N++,++r++,++r++
2,16,1,0,5,1243,RRARR,++r++,++r++
2,6,5,1,5,689,++N++,+++++,++r++
2,16,1,0,5,685,NNANN,++n++,++n++
2,1,1,1,1,970,++E++,+++++,+++++
2,4,5,1,5,675,AARAA,+++++,+++++
2,12,1,1,1,1169,++E++,++a++,++a++
2,13,5,1,5,401,++N++,++e++,++e++
2,13,1,1,1,194,++A++,++r++,++r++
2,11,5,1,5,353,++N++,++n++,++n++
2,4,5,0,1,504,AANAA,+++++,+++++
2,1,5,1,5,468,++R++,+++++,+++++
2,7,5,1,5,433,++R++,+++++,++a++
2,2,1,1,1,548,EEEEE,+++++,+++++
2,10,5,0,1,502,EENEE,+++++,++e++
2,1,1,1,1,469,++A++,+++++,+++++
2,10,5,0,1,544,AANAA,+++++,++a++
2,3,1,1,1,465,EEAEE,+++++,+++++
2,10,5,0,1,443,AARAA,+++++,++a++
2,7,5,1,5,581,++R++,+++++,++e++
2,16,5,0,1,412,EENEE,++e++,++e++
2,4,1,1,1,474,NNANN,+++++,+++++
2,8,5,1,5,389,NNNNN,+++++,++n++
2,10,1,0,5,535,NNANN,+++++,++n++
2,9,5,1,5,418,RRNRR,+++++,++r++
2,1,1,1,1,467,++E++,+++++,+++++
2,16,1,0,5,439,RRERR,++r++,++r++
2,5,1,1,1,445,++A++,+++++,++a++
2,13,5,0,1,336,++R++,++e++,++e++
2,6,1,1,1,523,++A++,+++++,++e++
2,12,1,1,1,143,++A++,++e++,++e++
2,7,1,0,5,361,++E++,+++++,++n++
2,1,5,1,5,456,++N++,+++++,+++++
2,4,5,0,1,838,EEREE,+++++,+++++
2,3,1,1,1,469,AAEAA,+++++,+++++
2,14,5,1,5,348,NNNNN,++n++,++n++
2,15,1,1,1,321,AAEAA,++a++,++a++
2,13,1,1,1,631,++E++,++r++,++r++
2,1,1,1,1,472,++A++,+++++,+++++
2,4,1,0,5,615,NNENN,+++++,+++++
2,1,1,1,1,461,++E++,+++++,+++++
2,1,1,1,1,432,++A++,+++++,+++++
2,8,1,1,1,349,EEEEE,+++++,++e++
2,15,5,1,5,57,NNRNN,++n++,++n++
2,3,5,1,5,454,RRNRR,+++++,+++++
2,1,5,1,5,418,++R++,+++++,+++++
2,16,5,0,1,367,EEREE,++e++,++e++
2,13,5,0,1,286,++R++,++a++,++a++
2,13,5,0,1,321,++N++,++a++,++a++
2,9,1,1,1,418,EEAEE,+++++,++e++
2,9,1,1,1,400,AAEAA,+++++,++a++
2,10,5,0,1,620,EEREE,+++++,++e++
2,11,5,1,5,39,++R++,++r++,++r++
2,13,1,0,5,69,++E++,++n++,++n++
2,7,1,1,1,491,++A++,+++++,++n++
2,7,5,0,1,384,++N++,+++++,++a++
2,1,5,1,5,467,++N++,+++++,+++++
2,16,1,0,5,758,NNENN,++n++,++n++
2,9,5,1,5,404,NNRNN,+++++,++n++
2,1,1,1,1,620,++E++,+++++,+++++
2,5,1,1,1,366,++E++,+++++,++e++
2,1,5,1,5,453,++N++,+++++,+++++
2,7,1,1,1,438,++A++,+++++,++r++
2,6,1,1,1,438,++E++,+++++,++a++
2,11,1,1,1,307,++A++,++a++,++a++
2,15,1,1,1,85,EEAEE,++e++,++e++
2,7,5,1,5,468,++N++,+++++,++e++
2,7,1,1,1,550,++E++,+++++,++r++
2,16,5,0,1,256,AARAA,++a++,++a++
2,6,5,1,5,420,++R++,+++++,++n++
2,12,5,1,5,633,++R++,++n++,++n++
2,4,5,0,1,436,EENEE,+++++,+++++
2,4,1,0,5,468,RRERR,+++++,+++++
2,10,1,0,5,448,NNENN,+++++,++n++
2,2,5,1,5,364,NNNNN,+++++,+++++
2,11,1,1,1,461,++E++,++e++,++e++
2,1,5,1,5,462,++N++,+++++,+++++
2,8,1,1,1,373,AAAAA,+++++,++a++
2,3,5,1,5,397,NNRNN,+++++,+++++
2,1,5,1,5,740,++R++,+++++,+++++
2,8,5,1,5,390,RRRRR,+++++,++r++
2,13,1,0,5,54,++A++,++n++,++n++
2,14,1,1,1,26,EEEEE,++e++,++e++
2,5,5,1,5,398,++N++,+++++,++n++
2,13,1,1,1,813,++A++,++n++,++n++
2,7,1,0,5,368,++E++,+++++,++r++
2,16,1,0,5,371,NNANN,++n++,++n++
2,4,1,0,5,435,RRARR,+++++,+++++
2,1,5,1,5,496,++N++,+++++,+++++
2,16,5,0,1,294,EEREE,++e++,++e++
2,4,5,0,1,946,EEREE,+++++,+++++
2,1,1,1,1,698,++E++,+++++,+++++
2,2,5,1,5,607,RRRRR,+++++,+++++
2,9,1,1,1,314,EEAEE,+++++,++e++
2,8,1,1,1,464,EEEEE,+++++,++e++
2,16,1,0,5,345,RRARR,++r++,++r++
2,8,1,1,1,331,AAAAA,+++++,++a++
2,10,5,0,1,665,AANAA,+++++,++a++
2,12,1,0,5,474,++E++,++a++,++a++
2,5,1,1,1,539,++A++,+++++,++a++
2,2,1,0,5,445,EEEEE,+++++,+++++
2,4,1,1,1,396,NNENN,+++++,+++++
2,4,5,0,1,425,AARAA,+++++,+++++
2,9,5,1,5,460,NNRNN,+++++,++n++
2,16,5,0,1,477,EENEE,++e++,++e++
2,1,1,1,1,729,++A++,+++++,+++++
2,7,1,1,1,515,++E++,+++++,++n++
2,6,5,1,5,456,++R++,+++++,++n++
2,4,1,1,1,577,NNANN,+++++,+++++
2,1,5,1,5,577,++N++,+++++,+++++
2,1,1,1,1,585,++E++,+++++,+++++
2,1,5,1,5,411,++R++,+++++,+++++
2,15,1,1,1,229,AAEAA,++a++,++a++
2,13,5,0,1,41,++R++,++e++,++e++
2,1,5,1,5,422,++R++,+++++,+++++
2,5,5,1,5,394,++R++,+++++,++r++
2,13,5,1,5,784,++R++,++a++,++a++
2,7,5,1,5,510,++N++,+++++,++e++
2,11,1,1,1,360,++E++,++e++,++e++
2,5,5,1,5,356,++N++,+++++,++n++
2,1,1,1,1,391,++A++,+++++,+++++
2,10,1,0,5,462,RRARR,+++++,++r++
2,7,5,1,5,452,++N++,+++++,++a++
2,1,5,0,1,639,++N++,+++++,+++++
2,14,1,1,1,418,EEEEE,++e++,++e++
2,13,5,1,5,462,++N++,++a++,++a++
2,11,1,1,1,423,++A++,++a++,++a++
2,7,1,1,1,562,++A++,+++++,++n++
2,10,5,1,5,701,EEREE,+++++,++e++
2,1,1,1,1,484,++E++,+++++,+++++
2,1,1,1,1,490,++E++,+++++,+++++
2,13,1,1,1,386,++A++,++r++,++r++
2,12,5,1,5,1099,++N++,++r++,++r++
2,4,5,0,1,717,EENEE,+++++,+++++
2,3,1,1,1,537,AAEAA,+++++,+++++
2,1,1,1,1,460,++A++,+++++,+++++
2,7,1,1,1,412,++A++,+++++,++r++
2,15,1,1,1,630,EEAEE,++e++,++e++
2,8,5,1,5,461,NNNNN,+++++,++n++
2,1,5,1,5,736,++N++,+++++,+++++
2,10,1,0,5,959,RRERR,+++++,++r++
2,10,1,0,5,483,NNENN,+++++,++n++
2,16,5,0,1,535,AARAA,++a++,++a++
2,16,1,0,5,389,NNENN,++n++,++n++
2,5,1,1,1,1299,++E++,+++++,++e++
2,3,5,1,5,394,RRNRR,+++++,+++++
2,7,5,1,5,447,++R++,+++++,++e++
2,1,5,1,5,381,++R++,+++++,+++++
2,4,5,0,1,360,AANAA,+++++,+++++
2,6,1,1,1,465,++E++,+++++,++a++
2,9,1,1,1,446,AAEAA,+++++,++a++
2,3,1,1,1,361,EEAEE,+++++,+++++
2,15,5,1,5,205,NNRNN,++n++,++n++
2,1,1,1,1,442,++A++,+++++,+++++
2,9,5,1,5,372,RRNRR,+++++,++r++
2,16,1,0,5,426,RRERR,++r++,++r++
2,12,5,1,5,440,++R++,++n++,++n++
2,11,5,1,5,427,++N++,++n++,++n++
2,7,5,1,5,611,++R++,+++++,++a++
2,13,1,0,5,155,++E++,++r++,++r++
2,1,5,1,5,394,++R++,+++++,+++++
2,13,5,1,5,468,++N++,++e++,++e++
2,12,1,1,1,515,++A++,++e++,++e++
2,8,5,1,5,410,RRRRR,+++++,++r++
2,2,5,1,5,421,NNNNN,+++++,+++++
2,6,5,1,5,371,++N++,+++++,++r++
2,14,5,1,5,318,RRRRR,++r++,++r++
2,14,1,1,1,305,AAAAA,++a++,++a++
2,10,1,0,5,496,NNANN,+++++,++n++
2,2,1,1,1,412,AAAAA,+++++,+++++
2,15,5,1,5,191,RRNRR,++r++,++r++
2,16,5,0,1,341,AANAA,++a++,++a++
2,10,5,0,1,575,EENEE,+++++,++e++
2,14,5,1,5,341,NNNNN,++n++,++n++
2,13,1,1,1,618,++E++,++n++,++n++
2,4,1,0,5,778,RRERR,+++++,+++++
2,6,1,1,1,476,++A++,+++++,++e++
2,10,5,0,1,528,AARAA,+++++,++a++
2,3,5,1,5,474,NNRNN,+++++,+++++
2,11,5,1,5,287,++R++,++r++,++r++
2,16,5,0,1,344,AANAA,++a++,++a++
2,10,1,0,5,394,RRARR,+++++,++r++
2,11,1,1,1,309,++E++,++e++,++e++
2,10,5,1,5,623,EEREE,+++++,++e++
2,8,5,1,5,475,NNNNN,+++++,++n++
2,9,1,1,1,1408,EEAEE,+++++,++e++
2,1,5,1,5,1325,++R++,+++++,+++++
2,13,1,1,1,963,++A++,++r++,++r++
2,6,5,1,5,724,++N++,+++++,++r++
2,10,5,0,1,457,AARAA,+++++,++a++
2,7,5,1,5,746,++N++,+++++,++e++
2,8,5,1,5,952,RRRRR,+++++,++r++
2,9,5,1,5,688,RRNRR,+++++,++r++
2,13,1,1,1,724,++E++,++n++,++n++
2,1,5,1,5,694,++R++,+++++,+++++
2,13,1,1,1,511,++E++,++r++,++r++
2,16,1,0,5,520,RRARR,++r++,++r++
2,3,5,1,5,445,RRNRR,+++++,+++++
2,2,1,1,1,478,EEEEE,+++++,+++++
2,3,5,1,5,876,NNRNN,+++++,+++++
2,9,5,1,5,403,NNRNN,+++++,++n++
2,8,1,1,1,656,EEEEE,+++++,++e++
2,9,1,1,1,506,AAEAA,+++++,++a++
2,3,1,1,1,479,AAEAA,+++++,+++++
2,12,5,1,5,663,++N++,++r++,++r++
2,1,1,1,1,457,++A++,+++++,+++++
2,1,1,1,1,637,++E++,+++++,+++++
2,10,5,1,5,470,AANAA,+++++,++a++
2,16,5,0,1,551,EEREE,++e++,++e++
2,2,5,1,5,520,RRRRR,+++++,+++++
2,12,1,1,1,439,++E++,++a++,++a++
2,1,1,1,1,1214,++E++,+++++,+++++
2,1,5,1,5,540,++R++,+++++,+++++
2,4,1,0,5,570,NNANN,+++++,+++++
2,1,1,1,1,451,++E++,+++++,+++++
2,5,1,1,1,355,++E++,+++++,++e++
2,1,5,1,5,470,++N++,+++++,+++++
2,8,1,1,1,473,AAAAA,+++++,++a++
2,15,1,1,1,338,AAEAA,++a++,++a++
2,4,1,0,5,450,RRERR,+++++,+++++
2,12,5,1,5,478,++R++,++n++,++n++
2,14,5,1,5,469,RRRRR,++r++,++r++
2,10,1,0,5,540,NNENN,+++++,++n++
2,4,1,0,5,566,RRARR,+++++,+++++
2,7,5,1,5,529,++R++,+++++,++e++
2,14,5,1,5,332,NNNNN,++n++,++n++
2,4,5,0,1,427,AANAA,+++++,+++++
2,15,5,1,5,453,RRNRR,++r++,++r++
2,5,5,1,5,434,++R++,+++++,++r++
2,16,1,0,5,340,RRERR,++r++,++r++
2,13,1,1,1,617,++A++,++n++,++n++
2,2,1,1,1,549,AAAAA,+++++,+++++
2,16,1,0,5,552,NNENN,++n++,++n++
2,16,1,0,5,366,NNANN,++n++,++n++
2,1,5,1,5,783,++N++,+++++,+++++
2,11,5,1,5,213,++R++,++r++,++r++
2,13,5,0,1,212,++R++,++a++,++a++
2,7,1,1,1,501,++A++,+++++,++n++
2,7,5,1,5,434,++R++,+++++,++a++
2,16,5,0,1,495,EENEE,++e++,++e++
2,6,5,1,5,440,++R++,+++++,++n++
2,7,1,1,1,465,++E++,+++++,++r++
2,14,1,1,1,213,AAAAA,++a++,++a++
2,1,1,1,1,385,++A++,+++++,+++++
2,1,5,1,5,542,++N++,+++++,+++++
2,5,5,1,5,404,++N++,+++++,++n++
2,15,1,1,1,425,EEAEE,++e++,++e++
2,7,1,1,1,433,++A++,+++++,++r++
2,10,1,0,5,973,RRERR,+++++,++r++
2,1,1,1,1,436,++A++,+++++,+++++
2,7,5,1,5,503,++N++,+++++,++a++
2,3,1,1,1,509,EEAEE,+++++,+++++
2,5,1,1,1,460,++A++,+++++,++a++
2,13,5,1,5,383,++N++,++e++,++e++
2,13,5,1,5,383,++N++,++a++,++a++
2,2,5,1,5,432,NNNNN,+++++,+++++
2,1,1,1,1,513,++E++,+++++,+++++
2,16,5,0,1,410,AARAA,++a++,++a++
2,4,5,1,5,605,EENEE,+++++,+++++
2,4,5,0,1,442,EEREE,+++++,+++++
2,12,1,1,1,464,++A++,++e++,++e++
2,10,5,0,1,560,EENEE,+++++,++e++
2,6,1,1,1,395,++A++,+++++,++e++
2,6,1,1,1,338,++E++,+++++,++a++
2,7,1,1,1,430,++E++,+++++,++n++
2,4,5,0,1,678,AARAA,+++++,+++++
2,14,1,1,1,399,EEEEE,++e++,++e++
2,11,1,1,1,396,++A++,++a++,++a++
2,4,1,1,1,434,NNENN,+++++,+++++
2,10,1,1,1,443,NNANN,+++++,++n++
2,1,5,1,5,475,++R++,+++++,+++++
2,15,5,1,5,240,NNRNN,++n++,++n++
2,1,5,1,5,365,++N++,+++++,+++++
2,11,5,1,5,369,++N++,++n++,++n++
2,1,1,1,1,517,++A++,+++++,+++++
2,13,5,0,1,303,++R++,++e++,++e++
2,2,5,1,5,478,RRRRR,+++++,+++++
2,14,5,1,5,319,NNNNN,++n++,++n++
2,1,1,1,1,871,++A++,+++++,+++++
2,7,1,0,5,330,++A++,+++++,++r++
2,9,1,1,1,499,AAEAA,+++++,++a++
2,13,5,1,5,588,++N++,++a++,++a++
2,10,5,0,1,488,AARAA,+++++,++a++
2,3,5,1,5,593,NNRNN,+++++,+++++
2,8,1,1,1,508,EEEEE,+++++,++e++
2,4,5,0,1,587,EEREE,+++++,+++++
2,7,1,1,1,467,++E++,+++++,++n++
2,6,1,1,1,358,++E++,+++++,++a++
2,2,5,1,5,406,NNNNN,+++++,+++++
2,14,1,1,1,391,AAAAA,++a++,++a++
2,11,5,1,5,403,++N++,++n++,++n++
2,10,1,0,5,577,NNENN,+++++,++n++
2,1,1,1,1,444,++A++,+++++,+++++
2,8,1,1,1,381,AAAAA,+++++,++a++
2,16,5,0,1,717,EENEE,++e++,++e++
2,13,1,1,1,453,++A++,++n++,++n++
2,4,1,0,5,535,NNENN,+++++,+++++
2,14,5,1,5,519,RRRRR,++r++,++r++
2,8,5,1,5,461,NNNNN,+++++,++n++
2,13,5,1,5,478,++N++,++e++,++e++
2,15,5,1,5,740,RRNRR,++r++,++r++
2,10,5,0,1,528,AANAA,+++++,++a++
2,12,5,1,5,674,++N++,++r++,++r++
2,4,5,1,5,694,EENEE,+++++,+++++
2,1,1,1,1,484,++A++,+++++,+++++
2,10,5,0,1,532,EEREE,+++++,++e++
2,7,1,0,5,471,++E++,+++++,++r++
2,4,5,0,1,726,AARAA,+++++,+++++
2,1,5,1,5,540,++R++,+++++,+++++
2,15,1,1,1,547,AAEAA,++a++,++a++
2,1,1,1,1,610,++E++,+++++,+++++
2,1,5,1,5,530,++N++,+++++,+++++
2,16,5,0,1,445,AARAA,++a++,++a++
2,16,5,0,1,382,EEREE,++e++,++e++
2,1,5,1,5,571,++N++,+++++,+++++
2,10,1,0,5,777,NNANN,+++++,++n++
2,7,1,1,1,489,++A++,+++++,++n++
2,6,5,1,5,789,++R++,+++++,++n++
2,16,1,0,5,447,NNANN,++n++,++n++
2,15,1,1,1,556,EEAEE,++e++,++e++
2,8,5,1,5,440,RRRRR,+++++,++r++
2,11,1,1,1,513,++A++,++a++,++a++
2,5,5,1,5,562,++N++,+++++,++n++
2,9,5,1,5,680,RRNRR,+++++,++r++
2,7,5,1,5,455,++R++,+++++,++e++
2,5,1,1,1,487,++E++,+++++,++e++
2,1,5,1,5,564,++N++,+++++,+++++
2,15,5,1,5,417,NNRNN,++n++,++n++
2,13,5,1,5,520,++R++,++a++,++a++
2,1,1,1,1,987,++E++,+++++,+++++
2,3,1,1,1,620,EEAEE,+++++,+++++
2,6,1,1,1,478,++A++,+++++,++e++
2,12,1,1,1,497,++A++,++e++,++e++
2,4,1,0,5,648,NNANN,+++++,+++++
2,1,5,1,5,560,++R++,+++++,+++++
2,3,5,1,5,574,RRNRR,+++++,+++++
2,1,1,1,1,580,++E++,+++++,+++++
2,7,5,1,5,521,++N++,+++++,++e++
2,13,1,1,1,514,++E++,++n++,++n++
2,12,5,1,5,398,++R++,++n++,++n++
2,10,1,1,1,562,RRERR,+++++,++r++
2,10,1,0,5,575,RRARR,+++++,++r++
2,12,1,1,1,675,++E++,++a++,++a++
2,16,1,0,5,69,RRARR,++r++,++r++
2,7,5,1,5,455,++R++,+++++,++a++
2,13,1,0,5,249,++A++,++r++,++r++
2,10,5,0,1,541,EENEE,+++++,++e++
2,1,5,1,5,475,++R++,+++++,+++++
2,1,1,1,1,455,++A++,+++++,+++++
2,4,1,0,5,415,RRARR,+++++,+++++
2,1,5,1,5,1366,++N++,+++++,+++++
2,9,1,1,1,569,EEAEE,+++++,++e++
2,1,1,1,1,931,++E++,+++++,+++++
2,6,5,1,5,1310,++N++,+++++,++r++
2,5,1,1,1,482,++A++,+++++,++a++
2,16,1,0,5,512,RRERR,++r++,++r++
2,11,1,1,1,701,++E++,++e++,++e++
2,5,5,1,5,606,++R++,+++++,++r++
2,9,5,1,5,629,NNRNN,+++++,++n++
2,1,5,1,5,1084,++R++,+++++,+++++
2,16,5,0,1,659,AANAA,++a++,++a++
2,11,5,1,5,507,++R++,++r++,++r++
2,13,1,1,1,579,++E++,++r++,++r++
2,16,1,0,5,562,NNENN,++n++,++n++
2,13,5,1,5,1122,++R++,++e++,++e++
2,2,1,1,1,464,EEEEE,+++++,+++++
2,2,1,1,1,519,AAAAA,+++++,+++++
2,4,1,0,5,476,RRERR,+++++,+++++
2,14,1,1,1,301,EEEEE,++e++,++e++
2,3,1,1,1,483,AAEAA,+++++,+++++
2,7,5,1,5,528,++N++,+++++,++a++
2,4,5,0,1,572,AANAA,+++++,+++++
2,13,5,1,5,509,++N++,++e++,++e++
2,1,1,1,1,424,++E++,+++++,+++++
2,11,1,1,1,311,++A++,++a++,++a++
2,9,5,1,5,383,NNRNN,+++++,++n++
2,10,5,0,1,563,AANAA,+++++,++a++
2,15,1,1,1,495,EEAEE,++e++,++e++
2,3,5,1,5,587,NNRNN,+++++,+++++
2,1,1,1,1,445,++E++,+++++,+++++
2,1,5,1,5,421,++N++,+++++,+++++
2,9,1,1,1,1481,AAEAA,+++++,++a++
2,7,1,1,1,1362,++E++,+++++,++n++
2,1,5,1,5,1128,++R++,+++++,+++++
2,2,1,1,1,1132,EEEEE,+++++,+++++
2,1,5,1,5,557,++R++,+++++,+++++
2,6,5,1,5,521,++N++,+++++,++r++
2,12,5,1,5,295,++R++,++n++,++n++
2,8,1,1,1,361,EEEEE,+++++,++e++
2,1,1,1,1,375,++E++,+++++,+++++
2,4,5,0,1,428,AARAA,+++++,+++++
2,4,1,0,5,678,RRERR,+++++,+++++
2,1,5,1,5,495,++N++,+++++,+++++
2,14,5,1,5,169,NNNNN,++n++,++n++
2,16,1,0,5,484,NNANN,++n++,++n++
2,2,5,1,5,443,NNNNN,+++++,+++++
2,13,1,1,1,368,++A++,++r++,++r++
2,12,5,1,5,469,++N++,++r++,++r++
2,1,1,1,1,395,++A++,+++++,+++++
2,2,1,1,1,348,AAAAA,+++++,+++++
2,6,1,1,1,582,++A++,+++++,++e++
2,11,5,0,1,474,++N++,++n++,++n++
2,1,1,1,1,474,++A++,+++++,+++++
2,4,5,0,1,530,EEREE,+++++,+++++
2,10,5,0,1,586,AARAA,+++++,++a++
2,16,5,0,1,729,AANAA,++a++,++a++
2,5,1,1,1,461,++A++,+++++,++a++
2,7,5,1,5,588,++R++,+++++,++a++
2,4,5,1,5,630,EENEE,+++++,+++++
2,7,5,1,5,565,++N++,+++++,++a++
2,15,5,1,5,439,NNRNN,++n++,++n++
2,10,1,0,5,398,NNANN,+++++,++n++
2,9,5,1,5,352,RRNRR,+++++,++r++
2,16,5,0,1,677,EENEE,++e++,++e++
2,10,5,0,1,542,EENEE,+++++,++e++
2,14,1,1,1,351,EEEEE,++e++,++e++
2,14,5,1,5,319,RRRRR,++r++,++r++
2,10,1,0,5,720,RRARR,+++++,++r++
2,7,5,1,5,504,++N++,+++++,++e++
2,16,1,0,5,794,NNENN,++n++,++n++
2,16,5,0,1,723,AARAA,++a++,++a++
2,1,5,1,5,686,++R++,+++++,+++++
2,4,1,0,5,572,RRARR,+++++,+++++
2,5,5,1,5,448,++R++,+++++,++r++
2,8,5,1,5,465,RRRRR,+++++,++r++
2,13,1,1,1,821,++E++,++n++,++n++
2,9,1,1,1,573,EEAEE,+++++,++e++
2,13,1,1,1,658,++E++,++r++,++r++
2,7,1,1,1,490,++A++,+++++,++r++
2,12,1,1,1,366,++E++,++a++,++a++
2,11,5,1,5,296,++R++,++r++,++r++
2,10,5,0,1,1238,EEREE,+++++,++e++
2,4,5,0,1,460,AANAA,+++++,+++++
2,7,1,1,1,1490,++E++,+++++,++r++
2,11,1,1,1,517,++E++,++e++,++e++
2,1,5,1,5,521,++N++,+++++,+++++
2,1,1,1,1,628,++A++,+++++,+++++
2,1,5,1,5,590,++N++,+++++,+++++
2,1,1,1,1,451,++E++,+++++,+++++
2,16,5,0,1,375,EEREE,++e++,++e++
2,10,1,0,5,725,NNENN,+++++,++n++
2,5,5,1,5,590,++N++,+++++,++n++
2,3,1,1,1,528,AAEAA,+++++,+++++
2,15,5,1,5,369,RRNRR,++r++,++r++
2,2,5,1,5,501,RRRRR,+++++,+++++
2,7,1,1,1,1520,++A++,+++++,++n++
2,5,1,1,1,947,++E++,+++++,++e++
2,8,5,1,5,1241,NNNNN,+++++,++n++
2,16,1,0,5,650,RRARR,++r++,++r++
2,8,1,1,1,414,AAAAA,+++++,++a++
2,12,1,1,1,411,++A++,++e++,++e++
2,3,1,1,1,592,EEAEE,+++++,+++++
2,10,1,0,5,380,RRERR,+++++,++r++
2,13,5,1,5,828,++R++,++a++,++a++
2,13,1,1,1,542,++A++,++n++,++n++
2,14,1,1,1,495,AAAAA,++a++,++a++
2,7,5,1,5,602,++R++,+++++,++e++
2,16,1,0,5,727,RRERR,++r++,++r++
2,4,1,0,5,527,NNENN,+++++,+++++
2,13,5,1,5,1058,++R++,++e++,++e++
2,6,1,1,1,479,++E++,+++++,++a++
2,15,1,1,1,307,AAEAA,++a++,++a++
2,4,1,0,5,677,NNANN,+++++,+++++
2,1,1,1,1,449,++A++,+++++,+++++
2,3,5,1,5,464,RRNRR,+++++,+++++
2,13,5,1,5,441,++N++,++a++,++a++
2,1,5,1,5,403,++R++,+++++,+++++
2,6,5,1,5,336,++R++,+++++,++n++
2,10,5,1,5,481,AARAA,+++++,++a++
2,1,5,1,5,376,++R++,+++++,+++++
2,13,1,1,1,962,++A++,++n++,++n++
2,15,5,1,5,817,RRNRR,++r++,++r++
2,7,1,1,1,521,++A++,+++++,++n++
2,5,1,1,1,415,++E++,+++++,++e++
2,7,5,0,1,356,++N++,+++++,++a++
2,7,1,1,1,545,++A++,+++++,++r++
2,13,5,1,5,497,++N++,++a++,++a++
2,12,5,1,5,505,++R++,++n++,++n++
2,6,1,1,1,464,++A++,+++++,++e++
2,3,1,1,1,793,EEAEE,+++++,+++++
2,3,1,1,1,503,AAEAA,+++++,+++++
2,1,5,1,5,530,++R++,+++++,+++++
2,16,1,0,5,514,RRARR,++r++,++r++
2,13,1,1,1,672,++A++,++r++,++r++
2,4,1,0,5,780,RRERR,+++++,+++++
2,1,1,1,1,603,++E++,+++++,+++++
2,12,1,1,1,618,++E++,++a++,++a++
2,14,5,1,5,586,RRRRR,++r++,++r++
2,15,5,1,5,517,NNRNN,++n++,++n++
2,4,1,1,1,722,NNENN,+++++,+++++
2,10,5,1,5,753,AANAA,+++++,++a++
2,1,1,1,1,600,++A++,+++++,+++++
2,16,5,0,1,184,AANAA,++a++,++a++
2,3,5,1,5,637,NNRNN,+++++,+++++
2,6,5,1,5,506,++N++,+++++,++r++
2,1,1,1,1,527,++E++,+++++,+++++
2,9,5,1,5,531,NNRNN,+++++,++n++
2,2,5,1,5,491,NNNNN,+++++,+++++
2,1,1,1,1,582,++E++,+++++,+++++
2,5,1,1,1,556,++A++,+++++,++a++
2,7,5,1,5,600,++R++,+++++,++e++
2,7,1,1,1,731,++E++,+++++,++r++
2,13,5,1,5,559,++N++,++e++,++e++
2,10,1,1,1,748,RRARR,+++++,++r++
2,2,1,1,1,658,EEEEE,+++++,+++++
2,16,5,1,5,520,EEREE,++e++,++e++
2,7,5,1,5,608,++N++,+++++,++e++
2,8,1,1,1,683,AAAAA,+++++,++a++
2,1,1,1,1,678,++E++,+++++,+++++
2,16,1,1,1,876,NNENN,++n++,++n++
2,11,5,1,5,767,++N++,++n++,++n++
2,11,5,1,5,963,++R++,++r++,++r++
2,7,1,1,1,1034,++E++,+++++,++n++
2,1,5,1,5,611,++N++,+++++,+++++
2,16,1,1,1,671,NNANN,++n++,++n++
2,4,1,1,1,520,NNANN,+++++,+++++
2,12,5,1,5,498,++N++,++r++,++r++
2,10,1,1,1,712,RRERR,+++++,++r++
2,3,5,1,5,700,RRNRR,+++++,+++++
2,10,5,1,5,785,EENEE,+++++,++e++
2,8,1,1,1,542,EEEEE,+++++,++e++
2,16,5,1,5,502,EENEE,++e++,++e++
2,1,1,1,1,633,++A++,+++++,+++++
2,1,5,1,5,477,++R++,+++++,+++++
2,15,1,1,1,687,EEAEE,++e++,++e++
2,10,1,1,1,703,NNENN,+++++,++n++
2,4,1,1,1,577,RRARR,+++++,+++++
2,9,5,1,5,516,RRNRR,+++++,++r++
2,13,5,1,5,955,++R++,++a++,++a++
2,13,1,1,1,558,++E++,++r++,++r++
2,1,1,1,1,1427,++A++,+++++,+++++
2,10,5,1,5,669,EEREE,+++++,++e++
2,14,1,1,1,919,AAAAA,++a++,++a++
2,6,5,1,5,413,++R++,+++++,++n++
2,9,1,1,1,544,AAEAA,+++++,++a++
2,5,5,1,5,542,++R++,+++++,++r++
2,8,5,1,5,473,RRRRR,+++++,++r++
2,14,1,1,1,682,EEEEE,++e++,++e++
2,4,5,1,5,606,EENEE,+++++,+++++
2,16,5,1,5,536,AARAA,++a++,++a++
2,4,5,1,5,549,AANAA,+++++,+++++
2,4,5,1,5,488,AARAA,+++++,+++++
2,1,5,1,5,967,++R++,+++++,+++++
2,1,5,1,5,949,++N++,+++++,+++++
2,16,1,1,1,980,RRERR,++r++,++r++
2,2,5,1,5,884,RRRRR,+++++,+++++
2,15,1,1,1,728,AAEAA,++a++,++a++
2,5,5,1,5,1251,++N++,+++++,++n++
2,13,1,1,1,481,++E++,++n++,++n++
2,1,1,1,1,616,++A++,+++++,+++++
2,9,1,1,1,691,EEAEE,+++++,++e++
2,14,5,1,5,551,NNNNN,++n++,++n++
2,10,1,1,1,676,NNANN,+++++,++n++
2,4,5,1,5,1353,EEREE,+++++,+++++
2,11,1,1,1,833,++E++,++e++,++e++
2,11,1,1,1,499,++A++,++a++,++a++
2,1,5,1,5,501,++N++,+++++,+++++
2,12,1,1,1,398,++A++,++e++,++e++
2,1,5,1,5,456,++N++,+++++,+++++
2,7,5,1,5,487,++R++,+++++,++a++
2,6,1,1,1,995,++E++,+++++,++a++
2,2,1,1,1,515,AAAAA,+++++,+++++
2,13,5,1,5,458,++R++,++e++,++e++
2,8,5,1,5,501,NNNNN,+++++,++n++
3,7,1,1,1,488,++R++,+++++,++e++
3,3,1,1,1,603,NNRNN,+++++,+++++
3,13,1,1,1,383,++R++,++e++,++e++
3,10,1,1,1,479,AANAA,+++++,++a++
3,16,1,0,5,400,EEREE,++e++,++e++
3,1,1,1,1,460,++N++,+++++,+++++
3,11,5,1,5,430,++E++,++e++,++e++
3,1,5,0,1,402,++A++,+++++,+++++
3,8,1,1,1,419,RRRRR,+++++,++r++
3,3,1,1,1,533,RRNRR,+++++,+++++
3,14,1,1,1,495,NNNNN,++n++,++n++
3,1,1,1,1,443,++N++,+++++,+++++
3,1,5,1,5,614,++A++,+++++,+++++
3,7,1,1,1,493,++R++,+++++,++a++
3,5,1,1,1,407,++R++,+++++,++r++
3,12,1,1,1,365,++N++,++r++,++r++
3,13,5,1,5,373,++E++,++r++,++r++
3,9,5,0,1,561,EEAEE,+++++,++e++
3,13,5,1,5,336,++A++,++r++,++r++
3,6,1,1,1,565,++N++,+++++,++r++
3,7,5,1,5,486,++E++,+++++,++r++
3,12,5,1,5,307,++E++,++a++,++a++
3,16,5,1,5,456,NNANN,++n++,++n++
3,9,1,1,1,416,RRNRR,+++++,++r++
3,5,5,1,5,362,++A++,+++++,++a++
3,11,5,1,5,275,++A++,++a++,++a++
3,13,1,1,1,272,++R++,++a++,++a++
3,1,5,1,5,370,++E++,+++++,+++++
3,3,5,1,5,444,EEAEE,+++++,+++++
3,4,1,1,1,328,EENEE,+++++,+++++
3,10,1,0,5,341,AARAA,+++++,++a++
3,7,1,1,1,468,++N++,+++++,++a++
3,9,5,1,5,363,AAEAA,+++++,++a++
3,1,1,1,1,357,++R++,+++++,+++++
3,6,5,1,5,365,++E++,+++++,++a++
3,4,5,1,5,467,NNANN,+++++,+++++
3,4,1,1,1,359,AARAA,+++++,+++++
3,5,5,1,5,257,++E++,+++++,++e++
3,1,1,1,1,392,++R++,+++++,+++++
3,15,5,1,5,478,AAEAA,++a++,++a++
3,14,5,0,1,356,AAAAA,++a++,++a++
3,15,1,1,1,397,NNRNN,++n++,++n++
3,9,1,1,1,533,NNRNN,+++++,++n++
3,16,5,0,1,370,NNENN,++n++,++n++
3,2,5,1,5,384,EEEEE,+++++,+++++
3,1,1,1,1,388,++R++,+++++,+++++
3,16,1,1,1,379,EENEE,++e++,++e++
3,12,5,1,5,285,++A++,++e++,++e++
3,4,5,0,1,432,RRERR,+++++,+++++
3,10,1,0,5,434,EEREE,+++++,++e++
3,10,5,1,5,495,NNANN,+++++,++n++
3,1,5,1,5,418,++E++,+++++,+++++
3,11,1,1,1,295,++N++,++n++,++n++
3,14,5,1,5,418,EEEEE,++e++,++e++
3,13,1,1,1,339,++N++,++a++,++a++
3,5,1,1,1,696,++N++,+++++,++n++
3,3,5,1,5,484,AAEAA,+++++,+++++
3,10,5,0,1,388,RRERR,+++++,++r++
3,10,5,1,5,428,RRARR,+++++,++r++
3,7,1,1,1,690,++N++,+++++,++e++
3,7,5,1,5,483,++E++,+++++,++n++
3,2,5,1,5,419,AAAAA,+++++,+++++
3,7,5,1,5,392,++A++,+++++,++n++
3,12,1,1,1,449,++R++,++n++,++n++
3,6,5,1,5,384,++A++,+++++,++e++
3,16,5,1,5,508,RRARR,++r++,++r++
3,13,1,1,1,388,++N++,++e++,++e++
3,1,5,1,5,370,++E++,+++++,+++++
3,10,5,1,5,375,NNENN,+++++,++n++
3,4,5,1,5,422,NNENN,+++++,+++++
3,8,5,1,5,210,EEEEE,+++++,++e++
3,11,1,1,1,470,++R++,++r++,++r++
3,16,1,1,1,366,AARAA,++a++,++a++
3,4,1,1,1,374,EEREE,+++++,+++++
3,1,1,1,1,426,++N++,+++++,+++++
3,14,1,1,1,299,RRRRR,++r++,++r++
3,1,1,1,1,349,++N++,+++++,+++++
3,13,5,1,5,341,++E++,++n++,++n++
3,2,1,1,1,412,RRRRR,+++++,+++++
3,13,5,1,5,264,++A++,++n++,++n++
3,16,1,1,1,317,AANAA,++a++,++a++
3,4,5,1,5,430,RRARR,+++++,+++++
3,1,5,1,5,363,++A++,+++++,+++++
3,1,5,1,5,439,++E++,+++++,+++++
3,16,5,0,1,229,RRERR,++r++,++r++
3,4,1,0,5,481,AANAA,+++++,+++++
3,8,5,1,5,410,AAAAA,+++++,++a++
3,2,1,1,1,387,NNNNN,+++++,+++++
3,15,5,1,5,378,EEAEE,++e++,++e++
3,1,5,1,5,416,++A++,+++++,+++++
3,7,5,0,1,347,++A++,+++++,++r++
3,10,1,1,1,485,EENEE,+++++,++e++
3,15,1,1,1,596,RRNRR,++r++,++r++
3,1,1,1,1,427,++R++,+++++,+++++
3,6,1,1,1,407,++R++,+++++,++n++
3,8,1,1,1,346,NNNNN,+++++,++n++
3,10,1,1,1,539,EENEE,+++++,++e++
3,5,1,1,1,322,++R++,+++++,++r++
3,4,5,1,5,404,NNANN,+++++,+++++
3,1,5,1,5,364,++A++,+++++,+++++
3,10,5,0,1,313,RRERR,+++++,++r++
3,7,5,1,5,441,++E++,+++++,++n++
3,6,1,1,1,387,++R++,+++++,++n++
3,2,1,1,1,382,RRRRR,+++++,+++++
3,12,1,1,1,437,++N++,++r++,++r++
3,13,1,1,1,377,++R++,++a++,++a++
3,16,5,1,5,399,NNENN,++n++,++n++
3,2,5,1,5,370,EEEEE,+++++,+++++
3,10,1,1,1,426,EEREE,+++++,++e++
3,1,1,1,1,387,++R++,+++++,+++++
3,16,1,1,1,357,EENEE,++e++,++e++
3,16,5,1,5,326,RRERR,++r++,++r++
3,1,1,1,1,1057,++N++,+++++,+++++
3,1,5,1,5,408,++A++,+++++,+++++
3,14,5,1,5,380,AAAAA,++a++,++a++
3,13,5,1,5,337,++A++,++r++,++r++
3,1,1,1,1,417,++N++,+++++,+++++
3,7,5,1,5,471,++A++,+++++,++r++
3,1,1,1,1,538,++R++,+++++,+++++
3,3,5,1,5,469,AAEAA,+++++,+++++
3,6,5,1,5,419,++A++,+++++,++e++
3,12,5,1,5,348,++E++,++a++,++a++
3,3,1,1,1,385,RRNRR,+++++,+++++
3,14,1,1,1,620,NNNNN,++n++,++n++
3,15,5,1,5,385,EEAEE,++e++,++e++
3,1,5,1,5,394,++E++,+++++,+++++
3,9,5,1,5,380,AAEAA,+++++,++a++
3,15,1,1,1,284,RRNRR,++r++,++r++
3,16,5,0,1,341,NNANN,++n++,++n++
3,8,5,1,5,378,AAAAA,+++++,++a++
3,7,5,1,5,437,++E++,+++++,++r++
3,1,5,1,5,345,++E++,+++++,+++++
3,4,1,1,1,482,EEREE,+++++,+++++
3,12,5,1,5,302,++A++,++e++,++e++
3,13,5,1,5,320,++E++,++r++,++r++
3,3,5,1,5,398,EEAEE,+++++,+++++
3,7,1,1,1,464,++R++,+++++,++a++
3,16,1,1,1,365,EEREE,++e++,++e++
3,16,1,1,1,374,AANAA,++a++,++a++
3,2,1,1,1,586,NNNNN,+++++,+++++
3,10,5,0,1,385,NNANN,+++++,++n++
3,13,1,1,1,440,++N++,++a++,++a++
3,1,1,1,1,472,++R++,+++++,+++++
3,1,5,1,5,351,++E++,+++++,+++++
3,8,1,1,1,393,RRRRR,+++++,++r++
3,13,1,1,1,328,++N++,++e++,++e++
3,7,1,1,1,445,++R++,+++++,++e++
3,7,1,1,1,473,++N++,+++++,++a++
3,12,1,1,1,380,++R++,++n++,++n++
3,15,5,1,5,419,AAEAA,++a++,++a++
3,1,5,1,5,414,++A++,+++++,+++++
3,14,5,1,5,386,EEEEE,++e++,++e++
3,9,5,1,5,404,EEAEE,+++++,++e++
3,16,5,1,5,465,RRARR,++r++,++r++
3,5,5,1,5,341,++E++,+++++,++e++
3,11,5,1,5,317,++A++,++a++,++a++
3,10,5,1,5,366,RRARR,+++++,++r++
3,7,5,0,1,293,++A++,+++++,++n++
3,3,1,1,1,473,NNRNN,+++++,+++++
3,1,1,1,1,408,++N++,+++++,+++++
3,2,5,1,5,452,AAAAA,+++++,+++++
3,1,1,1,1,399,++N++,+++++,+++++
3,4,5,1,5,399,NNENN,+++++,+++++
3,8,5,1,5,335,EEEEE,+++++,++e++
3,10,5,1,5,614,NNENN,+++++,++n++
3,11,1,1,1,316,++N++,++n++,++n++
3,4,1,0,5,432,EENEE,+++++,+++++
3,13,1,1,1,417,++R++,++e++,++e++
3,4,5,1,5,473,RRERR,+++++,+++++
3,8,1,1,1,371,NNNNN,+++++,++n++
3,11,5,1,5,267,++E++,++e++,++e++
3,13,5,1,5,284,++E++,++n++,++n++
3,4,1,1,1,323,AANAA,+++++,+++++
3,1,5,0,1,320,++E++,+++++,+++++
3,7,1,0,5,186,++N++,+++++,++e++
3,13,5,1,5,263,++A++,++n++,++n++
3,1,5,1,5,373,++A++,+++++,+++++
3,16,1,1,1,276,AARAA,++a++,++a++
3,9,1,1,1,398,NNRNN,+++++,++n++
3,9,1,1,1,327,RRNRR,+++++,++r++
3,10,1,0,5,230,AANAA,+++++,++a++
3,6,1,1,1,335,++N++,+++++,++r++
3,14,1,1,1,307,RRRRR,++r++,++r++
3,15,1,1,1,305,NNRNN,++n++,++n++
3,4,1,1,1,435,AARAA,+++++,+++++
3,6,5,1,5,433,++E++,+++++,++a++
3,11,1,1,1,276,++R++,++r++,++r++
3,4,5,0,1,375,RRARR,+++++,+++++
3,10,1,1,1,426,AARAA,+++++,++a++
3,5,1,1,1,421,++N++,+++++,++n++
3,5,5,1,5,333,++A++,+++++,++a++
3,1,1,1,1,433,++R++,+++++,+++++
3,5,1,1,1,437,++N++,+++++,++n++
3,14,1,1,1,363,RRRRR,++r++,++r++
3,14,1,1,1,407,NNNNN,++n++,++n++
3,1,5,1,5,335,++A++,+++++,+++++
3,4,5,1,5,552,RRERR,+++++,+++++
3,5,5,1,5,396,++A++,+++++,++a++
3,13,5,1,5,270,++A++,++n++,++n++
3,2,1,1,1,328,RRRRR,+++++,+++++
3,1,5,1,5,388,++E++,+++++,+++++
3,15,1,1,1,461,RRNRR,++r++,++r++
3,10,5,0,1,356,NNENN,+++++,++n++
3,7,5,1,5,491,++A++,+++++,++n++
3,4,5,1,5,366,NNANN,+++++,+++++
3,9,5,1,5,348,EEAEE,+++++,++e++
3,1,1,1,1,395,++N++,+++++,+++++
3,10,1,1,1,438,AANAA,+++++,++a++
3,1,1,1,1,444,++R++,+++++,+++++
3,10,1,1,1,430,EEREE,+++++,++e++
3,3,1,1,1,431,NNRNN,+++++,+++++
3,5,5,1,5,359,++E++,+++++,++e++
3,16,5,1,5,377,RRARR,++r++,++r++
3,13,5,1,5,303,++A++,++r++,++r++
3,4,1,1,1,348,EEREE,+++++,+++++
3,1,1,1,1,329,++R++,+++++,+++++
3,8,5,1,5,367,AAAAA,+++++,++a++
3,10,1,1,1,427,AARAA,+++++,++a++
3,2,1,1,1,429,NNNNN,+++++,+++++
3,1,5,1,5,382,++A++,+++++,+++++
3,7,5,1,5,638,++E++,+++++,++n++
3,6,1,1,1,377,++R++,+++++,++n++
3,7,1,1,1,465,++R++,+++++,++a++
3,1,1,1,1,435,++N++,+++++,+++++
3,12,5,1,5,311,++E++,++a++,++a++
3,16,1,1,1,323,EEREE,++e++,++e++
3,8,1,1,1,398,RRRRR,+++++,++r++
3,13,1,1,1,337,++R++,++e++,++e++
3,7,1,1,1,884,++N++,+++++,++e++
3,10,5,0,1,391,RRARR,+++++,++r++
3,2,5,1,5,711,EEEEE,+++++,+++++
3,4,1,1,1,443,EENEE,+++++,+++++
3,6,5,1,5,357,++E++,+++++,++a++
3,10,5,0,1,323,RRERR,+++++,++r++
3,1,5,1,5,428,++E++,+++++,+++++
3,10,5,1,5,442,NNANN,+++++,++n++
3,7,1,1,1,434,++N++,+++++,++a++
3,11,5,1,5,325,++A++,++a++,++a++
3,16,1,1,1,389,AANAA,++a++,++a++
3,1,5,1,5,659,++A++,+++++,+++++
3,14,5,1,5,465,AAAAA,++a++,++a++
3,11,5,1,5,284,++E++,++e++,++e++
3,14,5,1,5,376,EEEEE,++e++,++e++
3,1,5,1,5,334,++A++,+++++,+++++
3,6,5,1,5,376,++A++,+++++,++e++
3,13,1,1,1,284,++R++,++a++,++a++
3,13,1,1,1,329,++N++,++a++,++a++
3,4,1,1,1,608,AANAA,+++++,+++++
3,9,5,1,5,365,AAEAA,+++++,++a++
3,4,5,1,5,319,NNENN,+++++,+++++
3,11,1,1,1,429,++N++,++n++,++n++
3,1,1,1,1,318,++R++,+++++,+++++
3,7,5,0,1,313,++E++,+++++,++r++
3,1,5,0,1,408,++E++,+++++,+++++
3,16,5,1,5,506,RRERR,++r++,++r++
3,11,1,1,1,350,++R++,++r++,++r++
3,1,1,1,1,361,++R++,+++++,+++++
3,1,1,1,1,441,++N++,+++++,+++++
3,3,5,1,5,406,EEAEE,+++++,+++++
3,12,1,1,1,345,++N++,++r++,++r++
3,16,1,1,1,440,EENEE,++e++,++e++
3,12,5,1,5,300,++A++,++e++,++e++
3,10,1,1,1,636,EENEE,+++++,++e++
3,4,1,1,1,457,AARAA,+++++,+++++
3,6,1,1,1,411,++N++,+++++,++r++
3,1,5,1,5,370,++E++,+++++,+++++
3,2,5,1,5,404,AAAAA,+++++,+++++
3,3,5,1,5,331,AAEAA,+++++,+++++
3,8,1,1,1,324,NNNNN,+++++,++n++
3,7,5,0,1,396,++A++,+++++,++r++
3,1,1,0,5,348,++N++,+++++,+++++
3,16,5,1,5,479,NNENN,++n++,++n++
3,5,1,1,1,344,++R++,+++++,++r++
3,15,5,1,5,350,AAEAA,++a++,++a++
3,8,5,1,5,396,EEEEE,+++++,++e++
3,16,1,1,1,362,AARAA,++a++,++a++
3,15,5,1,5,389,EEAEE,++e++,++e++
3,12,1,1,1,360,++R++,++n++,++n++
3,15,1,1,1,395,NNRNN,++n++,++n++
3,13,1,1,1,367,++N++,++e++,++e++
3,4,5,1,5,689,RRARR,+++++,+++++
3,3,1,1,1,446,RRNRR,+++++,+++++
3,9,1,1,1,542,RRNRR,+++++,++r++
3,13,5,1,5,386,++E++,++r++,++r++
3,9,1,1,1,469,NNRNN,+++++,++n++
3,7,1,1,1,409,++R++,+++++,++e++
3,16,5,1,5,339,NNANN,++n++,++n++
3,13,5,1,5,309,++E++,++n++,++n++
3,4,5,1,5,339,NNENN,+++++,+++++
3,13,1,1,1,336,++N++,++e++,++e++
3,10,5,1,5,471,NNANN,+++++,++n++
3,4,5,1,5,440,RRERR,+++++,+++++
3,3,5,1,5,601,AAEAA,+++++,+++++
3,16,1,1,1,356,EENEE,++e++,++e++
3,15,1,1,1,367,RRNRR,++r++,++r++
3,6,1,1,1,466,++N++,+++++,++r++
3,7,1,0,5,253,++R++,+++++,++e++
3,9,5,1,5,376,EEAEE,+++++,++e++
3,7,1,1,1,452,++R++,+++++,++a++
3,10,1,0,5,403,AARAA,+++++,++a++
3,16,5,1,5,453,RRERR,++r++,++r++
3,4,1,1,1,308,AANAA,+++++,+++++
3,12,1,1,1,332,++N++,++r++,++r++
3,16,5,1,5,391,RRARR,++r++,++r++
3,16,1,1,1,423,AARAA,++a++,++a++
3,16,1,1,1,507,AANAA,++a++,++a++
3,1,1,1,1,428,++R++,+++++,+++++
3,11,1,1,1,393,++R++,++r++,++r++
3,16,5,1,5,423,NNANN,++n++,++n++
3,15,1,1,1,361,NNRNN,++n++,++n++
3,1,1,1,1,386,++R++,+++++,+++++
3,9,1,1,1,280,RRNRR,+++++,++r++
3,8,1,1,1,312,RRRRR,+++++,++r++
3,9,1,1,1,216,NNRNN,+++++,++n++
3,11,1,1,1,345,++N++,++n++,++n++
3,7,1,1,1,274,++N++,+++++,++a++
3,12,5,1,5,358,++A++,++e++,++e++
3,10,1,1,1,394,AANAA,+++++,++a++
3,15,5,1,5,379,EEAEE,++e++,++e++
3,4,1,1,1,430,EEREE,+++++,+++++
3,1,1,1,1,297,++R++,+++++,+++++
3,8,5,1,5,517,EEEEE,+++++,++e++
3,13,5,1,5,415,++A++,++n++,++n++
3,4,5,1,5,403,NNANN,+++++,+++++
3,5,1,1,1,294,++R++,+++++,++r++
3,7,1,0,5,442,++N++,+++++,++e++
3,16,1,1,1,397,EEREE,++e++,++e++
3,1,5,1,5,434,++E++,+++++,+++++
3,1,1,1,1,371,++N++,+++++,+++++
3,11,5,1,5,362,++E++,++e++,++e++
3,1,5,1,5,369,++A++,+++++,+++++
3,10,1,1,1,413,EENEE,+++++,++e++
3,6,5,1,5,397,++A++,+++++,++e++
3,3,5,1,5,372,EEAEE,+++++,+++++
3,1,5,1,5,331,++E++,+++++,+++++
3,7,5,1,5,364,++E++,+++++,++r++
3,5,5,1,5,357,++E++,+++++,++e++
3,14,1,1,1,370,NNNNN,++n++,++n++
3,9,5,1,5,305,AAEAA,+++++,++a++
3,1,5,1,5,344,++A++,+++++,+++++
3,13,5,1,5,289,++E++,++n++,++n++
3,3,1,1,1,353,NNRNN,+++++,+++++
3,8,1,1,1,310,NNNNN,+++++,++n++
3,13,1,1,1,230,++N++,++a++,++a++
3,13,5,0,1,224,++A++,++r++,++r++
3,4,1,1,1,570,EENEE,+++++,+++++
3,3,1,1,1,372,RRNRR,+++++,+++++
3,5,5,1,5,378,++A++,+++++,++a++
3,7,5,0,1,292,++A++,+++++,++n++
3,7,5,0,1,358,++E++,+++++,++n++
3,8,5,1,5,322,AAAAA,+++++,++a++
3,10,5,0,1,327,RRERR,+++++,++r++
3,1,1,1,1,382,++N++,+++++,+++++
3,10,1,1,1,466,EEREE,+++++,++e++
3,2,5,1,5,302,AAAAA,+++++,+++++
3,6,5,1,5,291,++E++,+++++,++a++
3,13,1,1,1,310,++R++,++e++,++e++
3,4,1,1,1,531,AARAA,+++++,+++++
3,13,1,1,1,395,++R++,++a++,++a++
3,6,1,1,1,540,++R++,+++++,++n++
3,1,5,1,5,481,++A++,+++++,+++++
3,1,5,1,5,289,++E++,+++++,+++++
3,2,5,1,5,322,EEEEE,+++++,+++++
3,15,5,1,5,331,AAEAA,++a++,++a++
3,1,5,1,5,366,++A++,+++++,+++++
3,11,5,1,5,334,++A++,++a++,++a++
3,10,5,1,5,486,RRARR,+++++,++r++
3,1,1,1,1,421,++R++,+++++,+++++
3,10,5,0,1,320,NNENN,+++++,++n++
3,1,5,1,5,298,++E++,+++++,+++++
3,13,5,1,5,256,++E++,++r++,++r++
3,2,1,1,1,365,NNNNN,+++++,+++++
3,12,1,1,1,385,++R++,++n++,++n++
3,16,5,1,5,332,NNENN,++n++,++n++
3,7,5,0,1,280,++A++,+++++,++r++
3,14,1,1,1,368,RRRRR,++r++,++r++
3,14,5,1,5,388,EEEEE,++e++,++e++
3,1,1,1,1,398,++N++,+++++,+++++
3,1,1,0,5,306,++N++,+++++,+++++
3,14,5,1,5,338,AAAAA,++a++,++a++
3,12,5,1,5,329,++E++,++a++,++a++
3,2,1,1,1,404,RRRRR,+++++,+++++
3,5,1,1,1,536,++N++,+++++,++n++
3,4,5,1,5,547,RRARR,+++++,+++++
3,7,1,1,1,460,++N++,+++++,++e++
3,9,1,1,1,433,NNRNN,+++++,++n++
3,13,1,1,1,442,++R++,++a++,++a++
3,4,5,0,1,383,RRERR,+++++,+++++
3,8,5,1,5,382,EEEEE,+++++,++e++
3,14,5,1,5,360,EEEEE,++e++,++e++
3,13,1,1,1,311,++N++,++e++,++e++
3,10,5,1,5,434,NNANN,+++++,++n++
3,9,5,1,5,364,AAEAA,+++++,++a++
3,4,1,1,1,443,EENEE,+++++,+++++
3,1,1,1,1,318,++N++,+++++,+++++
3,16,1,1,1,403,EENEE,++e++,++e++
3,3,5,1,5,331,EEAEE,+++++,+++++
3,8,1,1,1,303,NNNNN,+++++,++n++
3,13,5,1,5,374,++A++,++n++,++n++
3,13,5,1,5,463,++A++,++r++,++r++
3,14,1,0,5,464,RRRRR,++r++,++r++
3,1,5,1,5,699,++E++,+++++,+++++
3,16,5,0,1,384,NNENN,++n++,++n++
3,14,1,1,1,392,NNNNN,++n++,++n++
3,2,1,1,1,412,RRRRR,+++++,+++++
3,7,1,1,1,921,++R++,+++++,++e++
3,12,5,1,5,321,++A++,++e++,++e++
3,15,5,1,5,356,AAEAA,++a++,++a++
3,6,1,1,1,432,++R++,+++++,++n++
3,15,1,1,1,452,RRNRR,++r++,++r++
3,4,1,1,1,589,AANAA,+++++,+++++
3,15,1,1,1,419,NNRNN,++n++,++n++
3,12,1,1,1,412,++N++,++r++,++r++
3,10,1,1,1,541,EENEE,+++++,++e++
3,1,1,1,1,386,++R++,+++++,+++++
3,11,1,1,1,447,++R++,++r++,++r++
3,1,1,1,1,382,++R++,+++++,+++++
3,4,1,1,1,310,AARAA,+++++,+++++
3,1,1,1,1,274,++R++,+++++,+++++
3,7,5,0,1,290,++A++,+++++,++r++
3,16,1,1,1,339,AANAA,++a++,++a++
3,1,5,1,5,327,++E++,+++++,+++++
3,1,5,1,5,515,++A++,+++++,+++++
3,11,5,1,5,307,++E++,++e++,++e++
3,2,5,1,5,301,AAAAA,+++++,+++++
3,13,5,1,5,321,++E++,++r++,++r++
3,4,5,1,5,364,NNENN,+++++,+++++
3,16,5,0,1,333,RRARR,++r++,++r++
3,7,5,1,5,502,++E++,+++++,++r++
3,16,1,1,1,370,AARAA,++a++,++a++
3,10,1,1,1,462,AANAA,+++++,++a++
3,13,1,1,1,390,++R++,++e++,++e++
3,14,5,1,5,321,AAAAA,++a++,++a++
3,16,1,1,1,354,EEREE,++e++,++e++
3,12,5,0,1,327,++E++,++a++,++a++
3,3,1,1,1,372,NNRNN,+++++,+++++
3,5,1,1,1,292,++R++,+++++,++r++
3,3,5,1,5,473,AAEAA,+++++,+++++
3,2,5,1,5,384,EEEEE,+++++,+++++
3,1,5,1,5,258,++E++,+++++,+++++
3,6,1,1,1,669,++N++,+++++,++r++
3,8,1,1,1,317,RRRRR,+++++,++r++
3,10,5,0,1,305,RRERR,+++++,++r++
3,4,5,1,5,292,RRARR,+++++,+++++
3,1,5,1,5,307,++A++,+++++,+++++
3,1,5,1,5,267,++A++,+++++,+++++
3,7,1,0,5,215,++R++,+++++,++a++
3,10,5,1,5,690,NNENN,+++++,++n++
3,16,5,1,5,389,NNANN,++n++,++n++
3,5,5,0,1,279,++E++,+++++,++e++
3,4,1,0,5,334,EEREE,+++++,+++++
3,7,5,1,5,325,++E++,+++++,++n++
3,7,5,0,1,320,++A++,+++++,++n++
3,7,1,0,5,231,++N++,+++++,++a++
3,15,5,1,5,387,EEAEE,++e++,++e++
3,13,1,1,1,398,++N++,++a++,++a++
3,1,5,1,5,436,++E++,+++++,+++++
3,4,5,0,1,356,NNANN,+++++,+++++
3,3,1,1,1,369,RRNRR,+++++,+++++
3,6,5,1,5,199,++A++,+++++,++e++
3,5,5,1,5,211,++A++,+++++,++a++
3,6,5,1,5,329,++E++,+++++,++a++
3,1,5,1,5,247,++A++,+++++,+++++
3,9,1,1,1,613,RRNRR,+++++,++r++
3,5,1,1,1,340,++N++,+++++,++n++
3,12,1,1,1,355,++R++,++n++,++n++
3,10,5,0,1,279,RRARR,+++++,++r++
3,13,5,0,1,369,++E++,++n++,++n++
3,11,5,1,5,248,++A++,++a++,++a++
3,8,5,1,5,276,AAAAA,+++++,++a++
3,1,1,1,1,639,++N++,+++++,+++++
3,10,1,0,5,188,EEREE,+++++,++e++
3,1,1,0,5,252,++N++,+++++,+++++
3,11,1,1,1,366,++N++,++n++,++n++
3,16,5,0,1,348,RRERR,++r++,++r++
3,10,1,0,5,319,AARAA,+++++,++a++
3,1,1,1,1,392,++R++,+++++,+++++
3,2,1,1,1,390,NNNNN,+++++,+++++
3,1,1,1,1,382,++N++,+++++,+++++
3,9,5,1,5,144,EEAEE,+++++,++e++
3,1,1,1,1,560,++N++,+++++,+++++
3,10,1,1,1,550,EEREE,+++++,++e++
3,7,1,0,5,409,++R++,+++++,++a++
3,8,5,1,5,433,AAAAA,+++++,++a++
3,6,5,1,5,354,++A++,+++++,++e++
3,13,5,1,5,305,++E++,++r++,++r++
3,3,1,1,1,395,NNRNN,+++++,+++++
3,16,1,1,1,327,EENEE,++e++,++e++
3,4,1,1,1,560,EEREE,+++++,+++++
3,10,1,1,1,482,AANAA,+++++,++a++
3,5,5,1,5,326,++A++,+++++,++a++
3,11,5,1,5,295,++E++,++e++,++e++
3,2,1,1,1,350,RRRRR,+++++,+++++
3,6,5,1,5,395,++E++,+++++,++a++
3,12,5,1,5,263,++A++,++e++,++e++
3,13,5,1,5,259,++A++,++n++,++n++
3,1,5,1,5,931,++E++,+++++,+++++
3,1,1,1,1,354,++N++,+++++,+++++
3,1,5,1,5,377,++A++,+++++,+++++
3,1,1,0,5,306,++R++,+++++,+++++
3,10,1,1,1,426,AARAA,+++++,++a++
3,13,1,1,1,379,++R++,++e++,++e++
3,1,5,1,5,396,++E++,+++++,+++++
3,8,5,1,5,377,EEEEE,+++++,++e++
3,12,5,1,5,347,++E++,++a++,++a++
3,1,1,1,1,257,++N++,+++++,+++++
3,13,5,1,5,356,++A++,++r++,++r++
3,10,5,1,5,461,NNANN,+++++,++n++
3,8,1,1,1,276,NNNNN,+++++,++n++
3,6,1,1,1,368,++R++,+++++,++n++
3,7,5,0,1,395,++A++,+++++,++n++
3,11,1,1,1,389,++R++,++r++,++r++
3,16,1,1,1,458,EEREE,++e++,++e++
3,1,5,1,5,268,++A++,+++++,+++++
3,14,1,1,1,346,NNNNN,++n++,++n++
3,4,5,1,5,425,RRERR,+++++,+++++
3,1,1,1,1,330,++R++,+++++,+++++
3,14,5,1,5,328,AAAAA,++a++,++a++
3,4,1,1,1,404,AARAA,+++++,+++++
3,5,5,1,5,299,++E++,+++++,++e++
3,3,1,1,1,359,RRNRR,+++++,+++++
3,15,5,1,5,291,AAEAA,++a++,++a++
3,16,5,0,1,393,RRERR,++r++,++r++
3,9,1,1,1,408,NNRNN,+++++,++n++
3,14,1,1,1,463,RRRRR,++r++,++r++
3,16,5,1,5,274,RRARR,++r++,++r++
3,1,5,1,5,269,++E++,+++++,+++++
3,7,1,1,1,480,++N++,+++++,++a++
3,13,1,1,1,453,++N++,++a++,++a++
3,9,5,1,5,377,AAEAA,+++++,++a++
3,16,5,1,5,357,NNENN,++n++,++n++
3,14,5,1,5,383,EEEEE,++e++,++e++
3,15,5,1,5,314,EEAEE,++e++,++e++
3,10,1,0,5,230,EENEE,+++++,++e++
3,15,1,1,1,364,NNRNN,++n++,++n++
3,7,1,1,1,671,++R++,+++++,++e++
3,8,1,1,1,341,RRRRR,+++++,++r++
3,9,1,1,1,326,RRNRR,+++++,++r++
3,10,5,0,1,360,NNENN,+++++,++n++
3,13,1,1,1,426,++N++,++e++,++e++
3,4,5,1,5,387,RRARR,+++++,+++++
3,10,5,0,1,263,RRARR,+++++,++r++
3,10,5,0,1,364,RRERR,+++++,++r++
3,4,5,1,5,400,NNENN,+++++,+++++
3,9,5,1,5,393,EEAEE,+++++,++e++
3,15,1,1,1,334,RRNRR,++r++,++r++
3,11,5,1,5,266,++A++,++a++,++a++
3,2,5,1,5,271,AAAAA,+++++,+++++
3,4,1,0,5,333,AANAA,+++++,+++++
3,1,5,1,5,415,++A++,+++++,+++++
3,3,5,1,5,537,AAEAA,+++++,+++++
3,16,1,1,1,507,AANAA,++a++,++a++
3,13,5,1,5,484,++E++,++n++,++n++
3,1,1,1,1,741,++R++,+++++,+++++
3,16,5,1,5,507,NNANN,++n++,++n++
3,4,1,1,1,459,EENEE,+++++,+++++
3,7,1,1,1,442,++N++,+++++,++e++
3,12,1,1,1,528,++R++,++n++,++n++
3,2,1,1,1,489,NNNNN,+++++,+++++
3,5,1,1,1,282,++R++,+++++,++r++
3,12,1,0,5,264,++N++,++r++,++r++
3,16,1,1,1,419,AARAA,++a++,++a++
3,7,5,0,1,374,++E++,+++++,++n++
3,1,1,1,1,653,++N++,+++++,+++++
3,1,1,1,1,417,++R++,+++++,+++++
3,6,1,1,1,368,++N++,+++++,++r++
3,4,5,1,5,344,NNANN,+++++,+++++
3,2,5,1,5,400,EEEEE,+++++,+++++
3,13,1,1,1,352,++R++,++a++,++a++
3,7,5,1,5,400,++A++,+++++,++r++
3,3,5,1,5,349,EEAEE,+++++,+++++
3,7,5,0,1,317,++E++,+++++,++r++
3,5,1,1,1,383,++N++,+++++,++n++
3,11,1,1,1,384,++N++,++n++,++n++
3,1,5,1,5,298,++E++,+++++,+++++
3,1,5,1,5,438,++A++,+++++,+++++
3,2,1,1,1,472,NNNNN,+++++,+++++
3,9,1,1,1,376,RRNRR,+++++,++r++
3,4,5,1,5,350,NNENN,+++++,+++++
3,4,5,0,1,390,RRARR,+++++,+++++
3,10,1,1,1,551,EENEE,+++++,++e++
3,1,1,1,1,366,++R++,+++++,+++++
3,7,1,0,5,273,++R++,+++++,++a++
3,6,1,1,1,448,++N++,+++++,++r++
3,16,1,1,1,378,AARAA,++a++,++a++
3,10,5,1,5,452,RRARR,+++++,++r++
3,1,1,1,1,350,++N++,+++++,+++++
3,1,5,1,5,332,++A++,+++++,+++++
3,6,1,1,1,292,++R++,+++++,++n++
3,12,5,1,5,300,++E++,++a++,++a++
3,16,1,1,1,349,EENEE,++e++,++e++
3,16,1,1,1,428,EEREE,++e++,++e++
3,10,5,1,5,466,NNENN,+++++,++n++
3,5,5,1,5,383,++A++,+++++,++a++
3,1,1,1,1,368,++R++,+++++,+++++
3,4,1,0,5,380,AARAA,+++++,+++++
3,15,1,1,1,502,NNRNN,++n++,++n++
3,9,5,1,5,499,EEAEE,+++++,++e++
3,13,1,1,1,369,++R++,++e++,++e++
3,2,1,1,1,370,RRRRR,+++++,+++++
3,4,5,1,5,407,NNANN,+++++,+++++
3,12,1,1,1,387,++N++,++r++,++r++
3,13,5,0,1,331,++E++,++r++,++r++
3,7,1,1,1,499,++N++,+++++,++e++
3,4,1,0,5,447,EENEE,+++++,+++++
3,15,5,1,5,368,AAEAA,++a++,++a++
3,7,1,1,1,605,++N++,+++++,++a++
3,6,5,1,5,421,++E++,+++++,++a++
3,5,1,1,1,578,++R++,+++++,++r++
3,14,5,1,5,341,AAAAA,++a++,++a++
3,4,1,1,1,390,EEREE,+++++,+++++
3,15,1,1,1,410,RRNRR,++r++,++r++
3,16,5,1,5,494,NNENN,++n++,++n++
3,13,1,1,1,430,++N++,++a++,++a++
3,5,5,1,5,304,++E++,+++++,++e++
3,4,5,1,5,488,RRERR,+++++,+++++
3,14,1,1,1,423,NNNNN,++n++,++n++
3,3,1,1,1,515,NNRNN,+++++,+++++
3,16,1,1,1,323,AANAA,++a++,++a++
3,13,1,1,1,293,++N++,++e++,++e++
3,6,5,1,5,218,++A++,+++++,++e++
3,1,5,1,5,299,++E++,+++++,+++++
3,14,5,1,5,328,EEEEE,++e++,++e++
3,1,5,1,5,287,++A++,+++++,+++++
3,4,1,0,5,342,AANAA,+++++,+++++
3,2,5,1,5,466,AAAAA,+++++,+++++
3,8,5,1,5,324,AAAAA,+++++,++a++
3,1,1,1,1,478,++N++,+++++,+++++
3,16,5,1,5,394,RRARR,++r++,++r++
3,13,5,1,5,319,++A++,++n++,++n++
3,11,5,1,5,299,++A++,++a++,++a++
3,1,5,1,5,447,++E++,+++++,+++++
3,1,1,1,1,393,++N++,+++++,+++++
3,12,5,1,5,421,++A++,++e++,++e++
3,8,5,1,5,382,EEEEE,+++++,++e++
3,11,1,1,1,603,++N++,++n++,++n++
3,9,1,1,1,338,NNRNN,+++++,++n++
3,10,5,1,5,677,RRERR,+++++,++r++
3,8,1,1,1,408,RRRRR,+++++,++r++
3,10,1,1,1,546,AARAA,+++++,++a++
3,1,1,1,1,366,++R++,+++++,+++++
3,13,1,1,1,417,++R++,++a++,++a++
3,1,5,1,5,403,++A++,+++++,+++++
3,13,5,1,5,313,++E++,++n++,++n++
3,1,5,0,1,284,++A++,+++++,+++++
3,5,1,1,1,320,++N++,+++++,++n++
3,7,1,1,1,450,++R++,+++++,++e++
3,11,5,1,5,265,++E++,++e++,++e++
3,7,5,0,1,391,++E++,+++++,++n++
3,7,5,0,1,409,++A++,+++++,++n++
3,3,1,1,1,549,RRNRR,+++++,+++++
3,10,1,1,1,612,EEREE,+++++,++e++
3,10,5,0,1,296,NNANN,+++++,++n++
3,12,1,1,1,481,++R++,++n++,++n++
3,15,5,1,5,363,EEAEE,++e++,++e++
3,16,5,1,5,247,NNANN,++n++,++n++
3,14,1,1,1,336,RRRRR,++r++,++r++
3,7,5,1,5,330,++A++,+++++,++r++
3,13,5,1,5,298,++A++,++r++,++r++
3,1,1,1,1,374,++N++,+++++,+++++
3,8,1,1,1,338,NNNNN,+++++,++n++
3,11,1,1,1,261,++R++,++r++,++r++
3,3,5,1,5,390,EEAEE,+++++,+++++
3,3,5,1,5,411,AAEAA,+++++,+++++
3,1,5,1,5,379,++E++,+++++,+++++
3,9,5,1,5,207,AAEAA,+++++,++a++
3,7,5,0,1,257,++E++,+++++,++r++
3,10,1,1,1,439,AANAA,+++++,++a++
3,2,5,1,5,287,EEEEE,+++++,+++++
3,1,1,1,1,338,++R++,+++++,+++++
3,1,5,1,5,290,++E++,+++++,+++++
3,16,5,1,5,322,RRERR,++r++,++r++
3,12,5,1,5,357,++A++,++e++,++e++
3,2,1,1,1,483,NNNNN,+++++,+++++
3,10,5,0,1,354,RRARR,+++++,++r++
3,1,5,1,5,290,++A++,+++++,+++++
3,12,1,1,1,380,++N++,++r++,++r++
3,12,5,1,5,332,++E++,++a++,++a++
3,16,5,1,5,300,NNANN,++n++,++n++
3,1,1,1,1,350,++R++,+++++,+++++
3,1,5,1,5,289,++E++,+++++,+++++
3,16,1,1,1,315,EEREE,++e++,++e++
3,9,1,1,1,371,RRNRR,+++++,++r++
3,5,5,1,5,518,++E++,+++++,++e++
3,16,1,1,1,329,EENEE,++e++,++e++
3,11,5,1,5,305,++E++,++e++,++e++
3,3,1,1,1,375,RRNRR,+++++,+++++
3,8,5,1,5,327,AAAAA,+++++,++a++
3,6,5,1,5,241,++E++,+++++,++a++
3,1,5,1,5,410,++A++,+++++,+++++
3,10,5,0,1,271,NNENN,+++++,++n++
3,13,5,1,5,309,++A++,++n++,++n++
3,1,1,1,1,347,++R++,+++++,+++++
3,3,5,1,5,269,EEAEE,+++++,+++++
3,4,1,0,5,296,AARAA,+++++,+++++
3,7,1,1,1,441,++R++,+++++,++e++
3,1,5,1,5,471,++A++,+++++,+++++
3,1,5,1,5,383,++E++,+++++,+++++
3,6,1,1,1,385,++N++,+++++,++r++
3,7,5,1,5,520,++A++,+++++,++n++
3,5,1,0,5,424,++N++,+++++,++n++
3,7,1,1,1,437,++N++,+++++,++a++
3,10,1,1,1,506,AANAA,+++++,++a++
3,2,5,1,5,440,EEEEE,+++++,+++++
3,15,5,1,5,359,AAEAA,++a++,++a++
3,7,5,1,5,393,++E++,+++++,++r++
3,14,5,1,5,231,AAAAA,++a++,++a++
3,7,5,1,5,333,++A++,+++++,++r++
3,10,1,0,5,222,EENEE,+++++,++e++
3,11,1,1,1,430,++R++,++r++,++r++
3,2,1,1,1,354,RRRRR,+++++,+++++
3,13,5,1,5,369,++E++,++n++,++n++
3,4,5,1,5,345,NNENN,+++++,+++++
3,3,1,1,1,569,NNRNN,+++++,+++++
3,15,1,1,1,392,NNRNN,++n++,++n++
3,14,5,1,5,298,EEEEE,++e++,++e++
3,16,5,1,5,308,NNENN,++n++,++n++
3,12,1,1,1,340,++R++,++n++,++n++
3,1,5,1,5,289,++E++,+++++,+++++
3,4,1,1,1,443,EEREE,+++++,+++++
3,1,5,1,5,480,++A++,+++++,+++++
3,6,5,0,1,348,++A++,+++++,++e++
3,4,5,1,5,366,RRARR,+++++,+++++
3,9,1,1,1,278,NNRNN,+++++,++n++
3,8,5,1,5,341,EEEEE,+++++,++e++
3,7,1,0,5,321,++R++,+++++,++a++
3,4,5,1,5,337,RRERR,+++++,+++++
3,11,5,1,5,407,++A++,++a++,++a++
3,9,5,1,5,360,EEAEE,+++++,++e++
3,6,1,1,1,319,++R++,+++++,++n++
3,1,1,1,1,414,++N++,+++++,+++++
3,13,1,1,1,361,++N++,++e++,++e++
3,13,5,0,1,354,++E++,++r++,++r++
3,13,5,1,5,432,++A++,++r++,++r++
3,16,1,1,1,354,AARAA,++a++,++a++
3,4,5,1,5,472,NNANN,+++++,+++++
3,7,1,1,1,446,++N++,+++++,++e++
3,9,5,1,5,251,AAEAA,+++++,++a++
3,10,5,1,5,351,NNANN,+++++,++n++
3,16,1,1,1,326,AANAA,++a++,++a++
3,1,1,1,1,364,++R++,+++++,+++++
3,4,1,0,5,384,EENEE,+++++,+++++
3,11,1,1,1,432,++N++,++n++,++n++
3,4,1,1,1,344,AANAA,+++++,+++++
3,7,5,0,1,326,++E++,+++++,++n++
3,2,5,1,5,423,AAAAA,+++++,+++++
3,8,1,1,1,414,NNNNN,+++++,++n++
3,14,1,1,1,412,RRRRR,++r++,++r++
3,3,5,1,5,307,AAEAA,+++++,+++++
3,1,5,1,5,354,++E++,+++++,+++++
3,1,1,1,1,369,++N++,+++++,+++++
3,13,1,0,5,304,++R++,++e++,++e++
3,5,5,1,5,335,++A++,+++++,++a++
3,13,1,1,1,352,++R++,++a++,++a++
3,16,5,1,5,349,RRARR,++r++,++r++
3,1,1,1,1,413,++N++,+++++,+++++
3,10,1,1,1,378,EEREE,+++++,++e++
3,1,1,1,1,348,++R++,+++++,+++++
3,8,1,1,1,357,RRRRR,+++++,++r++
3,5,1,1,1,226,++R++,+++++,++r++
3,10,5,0,1,240,RRERR,+++++,++r++
3,16,5,0,1,358,RRERR,++r++,++r++
3,1,1,1,1,432,++N++,+++++,+++++
3,10,1,1,1,640,AARAA,+++++,++a++
3,13,1,1,1,385,++N++,++a++,++a++
3,15,1,1,1,492,RRNRR,++r++,++r++
3,15,5,1,5,370,EEAEE,++e++,++e++
3,14,1,1,1,407,NNNNN,++n++,++n++
5,16,1,1,1,449,EENEE,++e++,++e++
5,2,5,1,5,683,AAAAA,+++++,+++++
5,13,5,1,5,539,++E++,++r++,++r++
5,5,5,1,5,406,++E++,+++++,++e++
5,16,5,1,5,554,RRERR,++r++,++r++
5,6,1,1,1,583,++R++,+++++,++n++
5,4,5,1,5,495,RRERR,+++++,+++++
5,16,1,1,1,563,EEREE,++e++,++e++
5,1,5,1,5,595,++A++,+++++,+++++
5,3,1,1,1,463,RRNRR,+++++,+++++
5,11,1,1,1,367,++N++,++n++,++n++
5,10,5,1,5,582,RRERR,+++++,++r++
5,7,1,1,1,860,++N++,+++++,++e++
5,8,5,1,5,478,EEEEE,+++++,++e++
5,16,1,1,1,800,AARAA,++a++,++a++
5,11,5,1,5,512,++E++,++e++,++e++
5,4,1,1,1,716,EEREE,+++++,+++++
5,4,5,1,5,715,RRARR,+++++,+++++
5,6,5,1,5,474,++A++,+++++,++e++
5,13,1,1,1,571,++R++,++e++,++e++
5,9,5,1,5,455,AAEAA,+++++,++a++
5,14,5,1,5,453,EEEEE,++e++,++e++
5,5,1,1,1,594,++N++,+++++,++n++
5,4,5,1,5,476,NNANN,+++++,+++++
5,10,1,1,1,474,AARAA,+++++,++a++
5,2,5,1,5,479,EEEEE,+++++,+++++
5,3,5,1,5,560,EEAEE,+++++,+++++
5,15,1,1,1,611,RRNRR,++r++,++r++
5,14,1,1,1,481,RRRRR,++r++,++r++
5,10,5,1,5,533,NNENN,+++++,++n++
5,15,5,1,5,552,AAEAA,++a++,++a++
5,7,5,1,5,624,++A++,+++++,++r++
5,4,1,1,1,657,EENEE,+++++,+++++
5,7,5,1,5,1025,++E++,+++++,++r++
5,9,1,1,1,496,NNRNN,+++++,++n++
5,4,1,1,1,668,AANAA,+++++,+++++
5,1,1,1,1,650,++R++,+++++,+++++
5,1,5,1,5,447,++E++,+++++,+++++
5,1,1,1,1,454,++N++,+++++,+++++
5,7,5,1,5,465,++E++,+++++,++n++
5,14,5,1,5,733,AAAAA,++a++,++a++
5,7,1,1,1,481,++N++,+++++,++a++
5,13,1,1,1,1027,++R++,++a++,++a++
5,1,1,1,1,748,++R++,+++++,+++++
5,13,5,1,5,461,++E++,++n++,++n++
5,15,5,1,5,611,EEAEE,++e++,++e++
5,12,5,1,5,364,++E++,++a++,++a++
5,1,5,1,5,932,++A++,+++++,+++++
5,7,5,1,5,545,++A++,+++++,++n++
5,5,1,1,1,471,++R++,+++++,++r++
5,1,1,1,1,637,++N++,+++++,+++++
5,1,1,1,1,486,++N++,+++++,+++++
5,1,5,1,5,471,++E++,+++++,+++++
5,8,5,1,5,553,AAAAA,+++++,++a++
5,1,1,1,1,587,++R++,+++++,+++++
5,1,1,1,1,453,++N++,+++++,+++++
5,13,1,1,1,417,++N++,++a++,++a++
5,8,1,1,1,450,NNNNN,+++++,++n++
5,11,5,0,1,352,++A++,++a++,++a++
5,1,5,1,5,525,++E++,+++++,+++++
5,10,1,1,1,542,EENEE,+++++,++e++
5,1,5,1,5,447,++A++,+++++,+++++
5,2,1,1,1,490,NNNNN,+++++,+++++
5,12,1,1,1,572,++R++,++n++,++n++
5,10,1,1,1,640,AANAA,+++++,++a++
5,16,5,1,5,589,NNANN,++n++,++n++
5,8,1,1,1,459,RRRRR,+++++,++r++
5,3,5,1,5,613,AAEAA,+++++,+++++
5,2,1,1,1,446,RRRRR,+++++,+++++
5,3,1,1,1,552,NNRNN,+++++,+++++
5,9,5,1,5,507,EEAEE,+++++,++e++
5,1,5,1,5,504,++E++,+++++,+++++
5,11,1,1,1,350,++R++,++r++,++r++
5,7,1,1,1,486,++R++,+++++,++e++
5,12,5,1,5,478,++A++,++e++,++e++
5,10,5,1,5,503,NNANN,+++++,++n++
5,1,1,1,1,458,++R++,+++++,+++++
5,16,5,1,5,419,RRARR,++r++,++r++
5,4,1,1,1,615,AARAA,+++++,+++++
5,16,5,1,5,479,NNENN,++n++,++n++
5,12,1,0,5,748,++N++,++r++,++r++
5,15,1,0,5,554,NNRNN,++n++,++n++
5,10,5,1,5,748,RRARR,+++++,++r++
5,6,5,1,5,559,++E++,+++++,++a++
5,13,5,1,5,411,++A++,++r++,++r++
5,6,1,1,1,527,++N++,+++++,++r++
5,4,5,1,5,668,NNENN,+++++,+++++
5,1,5,0,1,758,++A++,+++++,+++++
5,16,1,1,1,469,AANAA,++a++,++a++
5,9,1,1,1,599,RRNRR,+++++,++r++
5,10,1,1,1,550,EEREE,+++++,++e++
5,13,1,1,1,427,++N++,++e++,++e++
5,14,1,1,1,419,NNNNN,++n++,++n++
5,7,1,1,1,525,++R++,+++++,++a++
5,13,5,1,5,391,++A++,++n++,++n++
5,5,5,1,5,644,++A++,+++++,++a++
5,3,1,1,1,563,RRNRR,+++++,+++++
5,4,1,1,1,554,EENEE,+++++,+++++
5,4,1,1,1,466,AARAA,+++++,+++++
5,1,1,1,1,460,++R++,+++++,+++++
5,1,1,1,1,382,++N++,+++++,+++++
5,13,5,1,5,350,++A++,++r++,++r++
5,1,1,1,1,451,++R++,+++++,+++++
5,3,5,1,5,402,AAEAA,+++++,+++++
5,1,1,1,1,875,++R++,+++++,+++++
5,11,1,1,1,338,++R++,++r++,++r++
5,13,1,1,1,330,++N++,++e++,++e++
5,14,1,1,1,422,NNNNN,++n++,++n++
5,10,5,1,5,375,RRERR,+++++,++r++
5,4,1,1,1,428,EEREE,+++++,+++++
5,14,1,1,1,384,RRRRR,++r++,++r++
5,16,5,1,5,355,RRERR,++r++,++r++
5,2,5,1,5,365,EEEEE,+++++,+++++
5,13,5,1,5,264,++A++,++n++,++n++
5,14,5,1,5,447,EEEEE,++e++,++e++
5,2,1,1,1,383,NNNNN,+++++,+++++
5,11,1,0,5,263,++N++,++n++,++n++
5,13,5,1,5,322,++E++,++r++,++r++
5,5,5,0,1,296,++A++,+++++,++a++
5,4,5,1,5,757,RRARR,+++++,+++++
5,1,5,1,5,486,++E++,+++++,+++++
5,11,5,1,5,344,++A++,++a++,++a++
5,7,1,1,1,449,++N++,+++++,++e++
5,1,1,1,1,340,++N++,+++++,+++++
5,1,1,1,1,306,++N++,+++++,+++++
5,4,1,1,1,524,AANAA,+++++,+++++
5,3,1,1,1,620,NNRNN,+++++,+++++
5,1,1,1,1,337,++N++,+++++,+++++
5,8,1,1,1,379,NNNNN,+++++,++n++
5,13,5,1,5,382,++E++,++n++,++n++
5,2,5,1,5,359,AAAAA,+++++,+++++
5,15,1,1,1,528,RRNRR,++r++,++r++
5,12,5,0,1,335,++A++,++e++,++e++
5,16,1,1,1,491,EEREE,++e++,++e++
5,12,5,0,1,501,++E++,++a++,++a++
5,5,1,1,1,357,++N++,+++++,++n++
5,10,1,0,5,378,EENEE,+++++,++e++
5,16,1,1,1,379,AANAA,++a++,++a++
5,7,1,1,1,631,++N++,+++++,++a++
5,16,1,1,1,665,AARAA,++a++,++a++
5,3,5,1,5,535,EEAEE,+++++,+++++
5,6,5,1,5,458,++A++,+++++,++e++
5,7,5,1,5,420,++A++,+++++,++n++
5,16,5,1,5,466,NNENN,++n++,++n++
5,10,1,1,1,449,AARAA,+++++,++a++
5,15,5,0,1,359,AAEAA,++a++,++a++
5,7,5,0,1,348,++E++,+++++,++n++
5,1,5,1,5,510,++A++,+++++,+++++
5,5,1,1,1,392,++R++,+++++,++r++
5,13,1,1,1,766,++R++,++e++,++e++
5,9,5,1,5,555,AAEAA,+++++,++a++
5,2,1,0,5,439,RRRRR,+++++,+++++
5,10,5,1,5,659,RRARR,+++++,++r++
5,8,5,1,5,405,AAAAA,+++++,++a++
5,14,5,1,5,534,AAAAA,++a++,++a++
5,10,5,1,5,640,NNANN,+++++,++n++
5,1,5,1,5,444,++E++,+++++,+++++
5,1,5,1,5,529,++A++,+++++,+++++
5,6,5,1,5,365,++E++,+++++,++a++
5,7,5,1,5,403,++E++,+++++,++r++
5,9,1,1,1,445,RRNRR,+++++,++r++
5,10,5,1,5,498,NNENN,+++++,++n++
5,15,1,1,1,656,NNRNN,++n++,++n++
5,1,5,1,5,541,++A++,+++++,+++++
5,12,1,1,1,713,++R++,++n++,++n++
5,9,1,1,1,389,NNRNN,+++++,++n++
5,12,1,1,1,365,++N++,++r++,++r++
5,6,1,1,1,417,++N++,+++++,++r++
5,16,1,1,1,708,EENEE,++e++,++e++
5,13,1,1,1,638,++N++,++a++,++a++
5,4,5,1,5,618,NNENN,+++++,+++++
5,7,5,1,5,707,++A++,+++++,++r++
5,9,5,1,5,423,EEAEE,+++++,++e++
5,8,5,1,5,605,EEEEE,+++++,++e++
5,7,1,1,1,476,++R++,+++++,++e++
5,16,5,0,1,495,NNANN,++n++,++n++
5,16,5,1,5,778,RRARR,++r++,++r++
5,10,1,0,5,557,EEREE,+++++,++e++
5,1,1,1,1,470,++R++,+++++,+++++
5,1,5,1,5,589,++A++,+++++,+++++
5,10,1,1,1,694,AANAA,+++++,++a++
5,15,5,1,5,831,EEAEE,++e++,++e++
5,13,1,1,1,815,++R++,++a++,++a++
5,1,5,1,5,667,++E++,+++++,+++++
5,11,5,1,5,698,++E++,++e++,++e++
5,5,5,1,5,368,++E++,+++++,++e++
5,7,1,0,5,446,++R++,+++++,++a++
5,4,5,1,5,441,NNANN,+++++,+++++
5,4,5,1,5,569,RRERR,+++++,+++++
5,8,1,1,1,652,RRRRR,+++++,++r++
5,6,1,1,1,381,++R++,+++++,++n++
5,1,5,0,1,390,++E++,+++++,+++++
5,9,5,1,5,410,EEAEE,+++++,++e++
5,14,1,1,1,470,NNNNN,++n++,++n++
5,1,1,1,1,402,++R++,+++++,+++++
5,16,1,1,1,517,EEREE,++e++,++e++
5,8,5,1,5,410,EEEEE,+++++,++e++
5,16,1,1,1,421,AARAA,++a++,++a++
5,1,1,1,1,402,++R++,+++++,+++++
5,12,1,1,1,550,++N++,++r++,++r++
5,7,1,1,1,489,++N++,+++++,++e++
5,4,1,0,5,386,AARAA,+++++,+++++
5,2,5,1,5,376,EEEEE,+++++,+++++
5,11,1,1,1,510,++R++,++r++,++r++
5,10,1,1,1,520,AARAA,+++++,++a++
5,1,5,1,5,636,++A++,+++++,+++++
5,4,5,1,5,431,RRERR,+++++,+++++
5,9,1,1,1,475,RRNRR,+++++,++r++
5,1,1,0,5,449,++R++,+++++,+++++
5,4,1,1,1,683,EENEE,+++++,+++++
5,7,5,1,5,506,++E++,+++++,++r++
5,10,5,1,5,548,RRERR,+++++,++r++
5,15,1,1,1,430,RRNRR,++r++,++r++
5,8,5,1,5,486,AAAAA,+++++,++a++
5,16,1,1,1,510,EENEE,++e++,++e++
5,8,1,1,1,476,NNNNN,+++++,++n++
5,14,1,1,1,523,RRRRR,++r++,++r++
5,7,1,1,1,571,++N++,+++++,++a++
5,5,5,1,5,375,++E++,+++++,++e++
5,1,5,1,5,289,++E++,+++++,+++++
5,13,5,1,5,444,++A++,++n++,++n++
5,5,5,1,5,538,++A++,+++++,++a++
5,12,5,1,5,326,++A++,++e++,++e++
5,13,1,0,5,336,++N++,++a++,++a++
5,13,5,1,5,284,++E++,++r++,++r++
5,6,1,1,1,689,++R++,+++++,++n++
5,15,5,1,5,483,AAEAA,++a++,++a++
5,2,1,1,1,503,NNNNN,+++++,+++++
5,4,5,0,1,508,NNANN,+++++,+++++
5,16,5,1,5,617,RRERR,++r++,++r++
5,14,5,1,5,334,AAAAA,++a++,++a++
5,7,5,1,5,531,++A++,+++++,++r++
5,12,5,1,5,336,++E++,++a++,++a++
5,1,5,1,5,372,++A++,+++++,+++++
5,3,5,1,5,545,AAEAA,+++++,+++++
5,12,1,1,1,495,++R++,++n++,++n++
5,2,5,1,5,499,AAAAA,+++++,+++++
5,13,1,1,1,393,++R++,++a++,++a++
5,16,5,1,5,768,NNANN,++n++,++n++
5,1,1,1,1,557,++N++,+++++,+++++
5,1,1,1,1,568,++N++,+++++,+++++
5,13,1,1,1,624,++N++,++e++,++e++
5,5,1,1,1,352,++N++,+++++,++n++
5,10,5,1,5,536,RRARR,+++++,++r++
5,3,5,0,1,721,EEAEE,+++++,+++++
5,13,1,1,1,341,++R++,++e++,++e++
5,13,5,1,5,536,++E++,++n++,++n++
5,15,5,1,5,484,EEAEE,++e++,++e++
5,10,5,1,5,588,NNENN,+++++,++n++
5,4,1,1,1,487,EEREE,+++++,+++++
5,10,1,0,5,415,AANAA,+++++,++a++
5,1,1,0,5,760,++N++,+++++,+++++
5,3,1,1,1,456,RRNRR,+++++,+++++
5,4,5,1,5,476,NNENN,+++++,+++++
5,5,1,1,1,619,++R++,+++++,++r++
5,6,5,1,5,506,++A++,+++++,++e++
5,3,1,1,1,550,NNRNN,+++++,+++++
5,16,5,1,5,442,NNENN,++n++,++n++
5,10,5,1,5,536,NNANN,+++++,++n++
5,7,1,1,1,502,++R++,+++++,++e++
5,11,1,1,1,607,++N++,++n++,++n++
5,15,1,0,5,539,NNRNN,++n++,++n++
5,10,1,1,1,867,EEREE,+++++,++e++
5,7,5,1,5,625,++A++,+++++,++n++
5,10,1,1,1,523,EENEE,+++++,++e++
5,16,1,1,1,754,AANAA,++a++,++a++
5,2,1,1,1,443,RRRRR,+++++,+++++
5,7,5,0,1,351,++E++,+++++,++n++
5,9,1,1,1,380,NNRNN,+++++,++n++
5,6,5,1,5,443,++E++,+++++,++a++
5,1,1,1,1,566,++N++,+++++,+++++
5,4,1,1,1,452,AANAA,+++++,+++++
5,16,5,1,5,494,RRARR,++r++,++r++
5,7,1,1,1,591,++R++,+++++,++a++
5,1,5,1,5,772,++A++,+++++,+++++
5,1,5,0,1,469,++E++,+++++,+++++
5,1,1,1,1,461,++R++,+++++,+++++
5,4,5,1,5,408,RRARR,+++++,+++++
5,9,5,1,5,389,AAEAA,+++++,++a++
5,6,1,1,1,374,++N++,+++++,++r++
5,13,5,1,5,362,++A++,++r++,++r++
5,14,5,1,5,394,EEEEE,++e++,++e++
5,1,5,1,5,403,++E++,+++++,+++++
5,1,5,1,5,362,++E++,+++++,+++++
5,11,5,1,5,553,++E++,++e++,++e++
5,1,5,1,5,336,++A++,+++++,+++++
5,11,5,1,5,408,++A++,++a++,++a++
5,8,1,1,1,392,RRRRR,+++++,++r++
5,12,5,1,5,332,++A++,++e++,++e++
5,7,1,1,1,496,++R++,+++++,++a++
5,2,5,0,1,473,AAAAA,+++++,+++++
5,10,1,1,1,544,EEREE,+++++,++e++
5,15,1,1,1,782,RRNRR,++r++,++r++
5,2,1,1,1,474,RRRRR,+++++,+++++
5,4,5,1,5,467,RRERR,+++++,+++++
5,16,5,1,5,579,NNENN,++n++,++n++
5,15,5,1,5,541,AAEAA,++a++,++a++
5,3,5,1,5,497,AAEAA,+++++,+++++
5,3,5,1,5,644,EEAEE,+++++,+++++
5,10,1,1,1,572,EENEE,+++++,++e++
5,1,1,1,1,593,++N++,+++++,+++++
5,13,5,1,5,579,++A++,++r++,++r++
5,12,1,1,1,423,++R++,++n++,++n++
5,9,1,0,5,546,RRNRR,+++++,++r++
5,8,1,1,1,518,NNNNN,+++++,++n++
5,7,1,1,1,604,++R++,+++++,++e++
5,5,1,1,1,433,++R++,+++++,++r++
5,13,1,1,1,766,++R++,++e++,++e++
5,10,5,1,5,543,RRARR,+++++,++r++
5,9,5,1,5,784,EEAEE,+++++,++e++
5,14,1,1,1,490,NNNNN,++n++,++n++
5,4,5,1,5,555,NNENN,+++++,+++++
5,6,1,1,1,419,++N++,+++++,++r++
5,14,1,1,1,398,RRRRR,++r++,++r++
5,14,5,1,5,418,EEEEE,++e++,++e++
5,3,1,1,1,536,NNRNN,+++++,+++++
5,12,1,1,1,414,++N++,++r++,++r++
5,13,5,1,5,450,++A++,++n++,++n++
5,11,5,1,5,407,++E++,++e++,++e++
5,7,5,1,5,580,++E++,+++++,++n++
5,8,1,1,1,421,RRRRR,+++++,++r++
5,4,1,0,5,454,EENEE,+++++,+++++
5,7,1,1,1,551,++N++,+++++,++a++
5,1,5,1,5,631,++E++,+++++,+++++
5,6,1,1,1,411,++R++,+++++,++n++
5,7,5,0,1,383,++E++,+++++,++r++
5,4,1,1,1,509,AARAA,+++++,+++++
5,1,1,1,1,466,++R++,+++++,+++++
5,16,1,0,5,484,EEREE,++e++,++e++
5,13,5,1,5,484,++E++,++n++,++n++
5,10,5,1,5,614,RRERR,+++++,++r++
5,10,1,1,1,594,AANAA,+++++,++a++
5,5,1,1,1,368,++N++,+++++,++n++
5,16,1,0,5,396,AANAA,++a++,++a++
5,1,1,1,1,489,++N++,+++++,+++++
5,7,1,0,5,338,++N++,+++++,++e++
5,10,5,1,5,589,NNENN,+++++,++n++
5,1,5,1,5,472,++E++,+++++,+++++
5,10,1,1,1,519,AARAA,+++++,++a++
5,1,5,1,5,504,++A++,+++++,+++++
5,10,5,1,5,736,NNANN,+++++,++n++
5,8,5,1,5,646,AAAAA,+++++,++a++
5,4,1,1,1,540,EEREE,+++++,+++++
5,6,5,1,5,509,++A++,+++++,++e++
5,9,5,1,5,353,AAEAA,+++++,++a++
5,16,5,1,5,397,NNANN,++n++,++n++
5,1,1,1,1,460,++R++,+++++,+++++
5,13,1,1,1,500,++N++,++a++,++a++
5,4,5,1,5,611,NNANN,+++++,+++++
5,1,5,1,5,654,++A++,+++++,+++++
5,7,5,1,5,408,++A++,+++++,++r++
5,11,5,1,5,384,++A++,++a++,++a++
5,1,5,1,5,348,++A++,+++++,+++++
5,1,1,1,1,450,++R++,+++++,+++++
5,14,5,0,1,410,AAAAA,++a++,++a++
5,11,1,1,1,457,++R++,++r++,++r++
5,1,1,1,1,461,++N++,+++++,+++++
5,1,5,1,5,470,++E++,+++++,+++++
5,4,1,1,1,545,AANAA,+++++,+++++
5,16,1,0,5,588,AARAA,++a++,++a++
5,15,1,1,1,469,NNRNN,++n++,++n++
5,16,5,1,5,415,RRARR,++r++,++r++
5,5,5,1,5,565,++E++,+++++,++e++
5,6,5,1,5,496,++E++,+++++,++a++
5,5,5,1,5,540,++A++,+++++,++a++
5,2,5,1,5,479,EEEEE,+++++,+++++
5,7,5,1,5,484,++A++,+++++,++n++
5,15,5,1,5,439,EEAEE,++e++,++e++
5,16,1,1,1,545,EENEE,++e++,++e++
5,1,1,1,1,468,++N++,+++++,+++++
5,13,1,1,1,366,++N++,++e++,++e++
5,13,5,1,5,381,++E++,++r++,++r++
5,16,5,1,5,353,RRERR,++r++,++r++
5,2,1,1,1,415,NNNNN,+++++,+++++
5,1,1,1,1,403,++R++,+++++,+++++
5,9,1,0,5,563,NNRNN,+++++,++n++
5,1,5,1,5,596,++A++,+++++,+++++
5,3,1,1,1,538,RRNRR,+++++,+++++
5,4,5,0,1,567,RRARR,+++++,+++++
5,12,5,1,5,680,++E++,++a++,++a++
5,11,1,1,1,627,++N++,++n++,++n++
5,8,5,1,5,418,EEEEE,+++++,++e++
5,1,5,1,5,419,++E++,+++++,+++++
5,13,1,1,1,502,++R++,++a++,++a++
5,1,5,1,5,613,++A++,+++++,+++++
5,9,1,1,1,716,RRNRR,+++++,++r++
5,10,5,1,5,598,RRERR,+++++,++r++
5,2,1,1,1,549,RRRRR,+++++,+++++
5,5,5,1,5,577,++A++,+++++,++a++
5,9,5,1,5,444,EEAEE,+++++,++e++
5,3,5,1,5,381,EEAEE,+++++,+++++
5,7,1,1,1,688,++N++,+++++,++e++
5,12,5,1,5,464,++A++,++e++,++e++
5,15,5,1,5,535,AAEAA,++a++,++a++
5,7,1,1,1,570,++R++,+++++,++a++
5,1,1,1,1,670,++R++,+++++,+++++
5,8,5,1,5,490,EEEEE,+++++,++e++
5,16,1,1,1,484,AANAA,++a++,++a++
5,14,5,1,5,739,AAAAA,++a++,++a++
5,2,1,1,1,590,NNNNN,+++++,+++++
5,7,1,1,1,515,++N++,+++++,++a++
5,12,1,1,1,471,++N++,++r++,++r++
5,11,5,1,5,447,++E++,++e++,++e++
5,6,1,1,1,518,++N++,+++++,++r++
5,13,5,1,5,483,++E++,++n++,++n++
5,10,1,1,1,561,AARAA,+++++,++a++
5,13,5,1,5,581,++E++,++r++,++r++
5,1,1,1,1,678,++R++,+++++,+++++
5,7,1,1,1,532,++R++,+++++,++e++
5,11,5,1,5,532,++A++,++a++,++a++
5,4,5,1,5,685,NNENN,+++++,+++++
5,4,1,1,1,607,EEREE,+++++,+++++
5,1,1,1,1,489,++R++,+++++,+++++
5,15,1,1,1,546,NNRNN,++n++,++n++
5,15,5,1,5,499,EEAEE,++e++,++e++
5,5,5,1,5,405,++E++,+++++,++e++
5,6,1,1,1,512,++R++,+++++,++n++
5,16,5,1,5,699,RRARR,++r++,++r++
5,1,1,1,1,655,++N++,+++++,+++++
5,4,1,1,1,696,AARAA,+++++,+++++
5,16,1,1,1,574,AARAA,++a++,++a++
5,14,1,1,1,559,NNNNN,++n++,++n++
5,7,5,1,5,625,++A++,+++++,++r++
5,10,5,1,5,699,NNANN,+++++,++n++
5,12,5,1,5,495,++E++,++a++,++a++
5,4,5,1,5,575,RRARR,+++++,+++++
5,8,1,1,1,573,NNNNN,+++++,++n++
5,11,1,1,1,540,++N++,++n++,++n++
5,3,1,1,1,813,NNRNN,+++++,+++++
5,14,1,1,1,473,RRRRR,++r++,++r++
5,7,5,1,5,611,++E++,+++++,++r++
5,13,5,1,5,615,++A++,++r++,++r++
5,7,5,1,5,529,++A++,+++++,++n++
5,10,5,1,5,595,NNENN,+++++,++n++
5,3,1,1,1,688,RRNRR,+++++,+++++
5,10,1,1,1,578,EEREE,+++++,++e++
5,1,1,1,1,420,++R++,+++++,+++++
5,16,1,1,1,478,EEREE,++e++,++e++
5,5,1,1,1,490,++R++,+++++,++r++
5,16,5,1,5,511,NNENN,++n++,++n++
5,10,5,0,1,428,RRARR,+++++,++r++
5,3,5,0,1,713,AAEAA,+++++,+++++
5,1,1,1,1,553,++N++,+++++,+++++
5,8,1,1,1,539,RRRRR,+++++,++r++
5,4,1,1,1,653,EENEE,+++++,+++++
5,1,5,1,5,724,++E++,+++++,+++++
5,1,1,1,1,1074,++N++,+++++,+++++
5,1,5,1,5,743,++A++,+++++,+++++
5,4,1,1,1,742,AANAA,+++++,+++++
5,13,1,1,1,602,++R++,++a++,++a++
5,14,5,1,5,611,EEEEE,++e++,++e++
5,13,1,1,1,532,++N++,++a++,++a++
5,16,1,1,1,630,EENEE,++e++,++e++
5,11,1,1,1,461,++R++,++r++,++r++
5,6,5,1,5,596,++A++,+++++,++e++
5,7,5,1,5,650,++E++,+++++,++n++
5,1,5,0,1,869,++A++,+++++,+++++
5,1,5,1,5,792,++A++,+++++,+++++
5,10,1,1,1,640,AANAA,+++++,++a++
5,1,5,1,5,754,++E++,+++++,+++++
5,1,1,1,1,576,++N++,+++++,+++++
5,2,5,1,5,553,AAAAA,+++++,+++++
5,10,1,1,1,643,EENEE,+++++,++e++
5,2,5,1,5,764,EEEEE,+++++,+++++
5,4,5,1,5,799,RRERR,+++++,+++++
5,16,5,1,5,715,NNANN,++n++,++n++
5,13,1,1,1,909,++N++,++e++,++e++
5,4,5,1,5,762,NNANN,+++++,+++++
5,5,1,1,1,499,++N++,+++++,++n++
5,6,5,1,5,533,++E++,+++++,++a++
5,15,1,0,5,707,RRNRR,++r++,++r++
5,1,5,1,5,598,++E++,+++++,+++++
5,13,1,1,1,530,++R++,++e++,++e++
5,16,5,1,5,634,RRERR,++r++,++r++
5,8,5,1,5,765,AAAAA,+++++,++a++
5,1,5,1,5,725,++E++,+++++,+++++
5,9,5,1,5,603,AAEAA,+++++,++a++
5,12,1,1,1,592,++R++,++n++,++n++
5,13,5,1,5,752,++A++,++n++,++n++
5,9,1,1,1,594,NNRNN,+++++,++n++
5,1,1,1,1,735,++R++,+++++,+++++
5,6,1,1,1,637,++N++,+++++,++r++
5,4,5,1,5,714,NNANN,+++++,+++++
5,1,5,1,5,629,++A++,+++++,+++++
5,9,1,1,1,601,RRNRR,+++++,++r++
5,1,5,1,5,600,++E++,+++++,+++++
5,7,5,1,5,564,++E++,+++++,++n++
5,16,5,1,5,675,NNANN,++n++,++n++
5,9,5,1,5,647,EEAEE,+++++,++e++
5,4,5,1,5,864,RRARR,+++++,+++++
5,5,5,1,5,988,++A++,+++++,++a++
5,13,5,1,5,526,++A++,++r++,++r++
5,7,1,1,1,825,++N++,+++++,++a++
5,16,1,1,1,1318,AARAA,++a++,++a++
5,7,5,1,5,987,++A++,+++++,++r++
5,3,1,1,1,716,NNRNN,+++++,+++++
5,6,5,1,5,587,++E++,+++++,++a++
5,12,1,1,1,672,++R++,++n++,++n++
5,10,1,1,1,675,AANAA,+++++,++a++
5,13,1,1,1,659,++R++,++e++,++e++
5,5,1,1,1,871,++N++,+++++,++n++
5,11,5,1,5,854,++A++,++a++,++a++
5,16,1,1,1,668,AANAA,++a++,++a++
5,2,5,1,5,834,EEEEE,+++++,+++++
5,4,1,1,1,508,EENEE,+++++,+++++
5,13,1,1,1,629,++N++,++a++,++a++
5,5,1,1,1,600,++R++,+++++,++r++
5,2,5,1,5,727,AAAAA,+++++,+++++
5,2,1,1,1,558,NNNNN,+++++,+++++
5,1,5,1,5,618,++A++,+++++,+++++
5,10,1,1,1,981,EENEE,+++++,++e++
5,16,5,1,5,780,RRERR,++r++,++r++
5,15,1,1,1,811,RRNRR,++r++,++r++
5,14,5,1,5,695,AAAAA,++a++,++a++
5,12,1,1,1,782,++N++,++r++,++r++
5,2,1,1,1,630,RRRRR,+++++,+++++
5,7,1,1,1,625,++N++,+++++,++e++
5,11,1,1,1,547,++R++,++r++,++r++
5,10,5,1,5,751,RRERR,+++++,++r++
5,1,1,1,1,829,++R++,+++++,+++++
5,11,1,1,1,488,++N++,++n++,++n++
5,10,1,1,1,606,AARAA,+++++,++a++
5,6,5,1,5,709,++A++,+++++,++e++
5,13,5,1,5,555,++A++,++n++,++n++
5,13,1,1,1,739,++R++,++a++,++a++
5,7,1,1,1,571,++R++,+++++,++e++
5,16,5,1,5,741,RRARR,++r++,++r++
5,7,1,1,1,822,++R++,+++++,++a++
5,1,1,1,1,593,++N++,+++++,+++++
5,8,1,1,1,557,NNNNN,+++++,++n++
5,11,5,1,5,2695,++E++,++e++,++e++
5,1,5,1,5,700,++A++,+++++,+++++
5,9,1,1,1,573,NNRNN,+++++,++n++
5,15,5,1,5,588,AAEAA,++a++,++a++
5,7,5,1,5,680,++A++,+++++,++n++
5,4,5,1,5,549,NNENN,+++++,+++++
5,14,1,1,1,495,RRRRR,++r++,++r++
5,16,1,1,1,612,EEREE,++e++,++e++
5,5,5,1,5,630,++E++,+++++,++e++
5,3,5,1,5,600,AAEAA,+++++,+++++
5,1,5,1,5,638,++E++,+++++,+++++
5,14,5,1,5,783,EEEEE,++e++,++e++
5,12,5,1,5,668,++A++,++e++,++e++
5,4,5,1,5,718,RRERR,+++++,+++++
5,15,5,1,5,633,EEAEE,++e++,++e++
5,1,1,1,1,732,++R++,+++++,+++++
5,13,5,1,5,622,++E++,++n++,++n++
5,3,5,1,5,693,EEAEE,+++++,+++++
5,13,5,1,5,656,++E++,++r++,++r++
5,1,5,1,5,621,++A++,+++++,+++++
5,8,5,1,5,593,AAAAA,+++++,++a++
5,4,1,1,1,670,AANAA,+++++,+++++
5,1,1,1,1,503,++N++,+++++,+++++
5,1,1,1,1,470,++N++,+++++,+++++
5,1,1,1,1,492,++N++,+++++,+++++
5,4,1,1,1,835,EEREE,+++++,+++++
5,16,1,1,1,632,EENEE,++e++,++e++
5,3,1,1,1,602,RRNRR,+++++,+++++
5,15,1,1,1,651,NNRNN,++n++,++n++
5,1,1,1,1,639,++R++,+++++,+++++
5,12,5,1,5,884,++E++,++a++,++a++
5,16,5,1,5,571,NNENN,++n++,++n++
5,10,5,1,5,893,NNANN,+++++,++n++
5,7,5,1,5,735,++E++,+++++,++r++
5,1,5,1,5,618,++E++,+++++,+++++
5,10,5,1,5,716,NNENN,+++++,++n++
5,9,5,1,5,725,AAEAA,+++++,++a++
5,1,5,1,5,976,++E++,+++++,+++++
5,10,1,1,1,719,EEREE,+++++,++e++
5,8,5,1,5,606,EEEEE,+++++,++e++
5,4,1,1,1,638,AARAA,+++++,+++++
5,14,1,1,1,560,NNNNN,++n++,++n++
5,6,1,1,1,565,++R++,+++++,++n++
5,8,1,1,1,470,RRRRR,+++++,++r++
5,10,5,1,5,673,RRARR,+++++,++r++
5,13,1,1,1,607,++N++,++e++,++e++
5,8,1,1,1,615,NNNNN,+++++,++n++
5,8,5,1,5,627,EEEEE,+++++,++e++
5,1,1,1,1,482,++R++,+++++,+++++
5,14,1,1,1,838,RRRRR,++r++,++r++
5,1,1,1,1,643,++N++,+++++,+++++
5,16,1,1,1,558,AARAA,++a++,++a++
5,8,5,1,5,576,AAAAA,+++++,++a++
5,13,5,1,5,591,++E++,++n++,++n++
5,12,5,1,5,502,++E++,++a++,++a++
5,1,1,1,1,554,++R++,+++++,+++++
5,3,1,1,1,533,NNRNN,+++++,+++++
5,10,5,1,5,603,NNANN,+++++,++n++
5,1,5,1,5,622,++E++,+++++,+++++
5,14,5,1,5,550,AAAAA,++a++,++a++
5,1,5,1,5,523,++A++,+++++,+++++
5,5,5,1,5,468,++A++,+++++,++a++
5,10,1,1,1,730,EENEE,+++++,++e++
5,4,1,1,1,568,AANAA,+++++,+++++
5,9,1,1,1,630,NNRNN,+++++,++n++
5,12,1,1,1,436,++R++,++n++,++n++
5,11,1,1,1,393,++N++,++n++,++n++
5,3,5,1,5,723,EEAEE,+++++,+++++
5,16,5,1,5,533,NNENN,++n++,++n++
5,13,1,1,1,412,++R++,++a++,++a++
5,1,1,1,1,480,++N++,+++++,+++++
5,2,1,1,1,457,NNNNN,+++++,+++++
5,1,5,1,5,641,++A++,+++++,+++++
5,13,5,1,5,496,++E++,++r++,++r++
5,2,1,1,1,486,RRRRR,+++++,+++++
5,1,1,1,1,614,++N++,+++++,+++++
5,13,1,1,1,473,++N++,++a++,++a++
5,3,1,1,1,470,RRNRR,+++++,+++++
5,1,5,1,5,521,++E++,+++++,+++++
5,10,1,1,1,781,EEREE,+++++,++e++
5,4,5,1,5,628,NNANN,+++++,+++++
5,7,1,1,1,506,++N++,+++++,++a++
5,4,5,1,5,611,NNENN,+++++,+++++
5,15,1,1,1,622,RRNRR,++r++,++r++
5,15,5,1,5,585,AAEAA,++a++,++a++
5,9,1,1,1,466,RRNRR,+++++,++r++
5,12,1,1,1,484,++N++,++r++,++r++
5,11,1,1,1,576,++R++,++r++,++r++
5,16,5,1,5,480,NNANN,++n++,++n++
5,13,5,1,5,586,++A++,++r++,++r++
5,12,5,1,5,503,++A++,++e++,++e++
5,4,5,1,5,530,RRARR,+++++,+++++
5,7,5,0,1,456,++E++,+++++,++r++
5,1,1,1,1,662,++R++,+++++,+++++
5,7,5,1,5,567,++A++,+++++,++r++
5,9,5,1,5,570,EEAEE,+++++,++e++
5,14,1,1,1,693,NNNNN,++n++,++n++
5,16,5,1,5,795,RRARR,++r++,++r++
5,14,5,1,5,671,EEEEE,++e++,++e++
5,1,5,1,5,634,++A++,+++++,+++++
5,5,1,1,1,487,++R++,+++++,++r++
5,4,5,1,5,525,RRERR,+++++,+++++
5,10,1,1,1,633,AANAA,+++++,++a++
5,13,5,1,5,551,++A++,++n++,++n++
5,6,1,1,1,692,++N++,+++++,++r++
5,10,5,1,5,586,RRERR,+++++,++r++
5,15,5,1,5,611,EEAEE,++e++,++e++
5,13,1,1,1,517,++N++,++e++,++e++
5,6,5,1,5,520,++A++,+++++,++e++
5,11,5,1,5,680,++A++,++a++,++a++
5,8,1,1,1,1056,RRRRR,+++++,++r++
5,7,1,1,1,662,++R++,+++++,++a++
5,4,1,1,1,524,AARAA,+++++,+++++
5,7,1,1,1,437,++R++,+++++,++e++
5,16,1,1,1,512,EENEE,++e++,++e++
5,2,5,1,5,400,EEEEE,+++++,+++++
5,5,1,1,1,397,++N++,+++++,++n++
5,16,5,1,5,641,RRERR,++r++,++r++
5,6,5,1,5,492,++E++,+++++,++a++
5,15,1,1,1,563,NNRNN,++n++,++n++
5,10,1,1,1,600,AARAA,+++++,++a++
5,11,5,1,5,434,++E++,++e++,++e++
5,10,5,1,5,569,NNENN,+++++,++n++
5,1,5,1,5,438,++E++,+++++,+++++
5,7,5,1,5,561,++A++,+++++,++n++
5,4,1,0,5,488,EENEE,+++++,+++++
5,1,1,1,1,534,++R++,+++++,+++++
5,6,1,1,1,444,++R++,+++++,++n++
5,7,5,1,5,494,++E++,+++++,++n++
5,5,5,1,5,450,++E++,+++++,++e++
5,13,1,1,1,452,++R++,++e++,++e++
5,10,5,1,5,512,RRARR,+++++,++r++
5,1,1,1,1,516,++N++,+++++,+++++
5,7,1,1,1,853,++N++,+++++,++e++
5,16,1,1,1,539,AANAA,++a++,++a++
5,1,5,1,5,554,++A++,+++++,+++++
5,4,1,1,1,618,EEREE,+++++,+++++
5,2,5,1,5,633,AAAAA,+++++,+++++
5,9,5,1,5,570,AAEAA,+++++,++a++
5,16,1,1,1,499,EEREE,++e++,++e++
5,1,5,1,5,472,++E++,+++++,+++++
5,3,5,1,5,547,AAEAA,+++++,+++++
5,3,1,0,5,579,NNRNN,+++++,+++++
5,13,1,0,5,486,++N++,++e++,++e++
5,5,5,0,1,502,++A++,+++++,++a++
5,15,1,0,5,497,RRNRR,++r++,++r++
5,6,1,1,1,434,++R++,+++++,++n++
5,12,5,0,1,437,++A++,++e++,++e++
5,4,5,1,5,577,RRERR,+++++,+++++
5,1,1,1,1,474,++N++,+++++,+++++
5,1,5,0,1,652,++E++,+++++,+++++
5,2,1,0,5,1117,RRRRR,+++++,+++++
5,15,5,0,1,497,AAEAA,++a++,++a++
5,11,1,0,5,426,++R++,++r++,++r++
5,16,1,1,1,751,AANAA,++a++,++a++
5,1,1,0,5,502,++N++,+++++,+++++
5,5,5,0,1,389,++E++,+++++,++e++
5,8,5,0,1,1066,AAAAA,+++++,++a++
5,2,1,1,1,432,NNNNN,+++++,+++++
5,1,5,0,1,705,++E++,+++++,+++++
5,13,5,0,1,461,++E++,++n++,++n++
5,3,5,0,1,431,AAEAA,+++++,+++++
5,6,5,0,1,500,++E++,+++++,++a++
5,15,1,1,1,504,NNRNN,++n++,++n++
5,8,5,0,1,453,EEEEE,+++++,++e++
5,16,5,0,1,608,RRERR,++r++,++r++
5,4,5,1,5,449,NNANN,+++++,+++++
5,2,5,0,1,483,AAAAA,+++++,+++++
5,7,1,0,5,939,++N++,+++++,++e++
5,13,5,0,1,511,++A++,++n++,++n++
5,14,1,1,1,474,NNNNN,++n++,++n++
5,5,1,0,5,451,++R++,+++++,++r++
5,8,1,0,5,474,NNNNN,+++++,++n++
5,7,5,0,1,369,++E++,+++++,++n++
5,1,1,0,5,437,++N++,+++++,+++++
5,10,5,0,1,560,RRARR,+++++,++r++
5,1,5,0,1,453,++E++,+++++,+++++
5,8,1,0,5,417,RRRRR,+++++,++r++
5,12,1,0,5,593,++N++,++r++,++r++
5,15,5,0,1,518,EEAEE,++e++,++e++
5,9,1,0,5,913,RRNRR,+++++,++r++
5,1,5,0,1,407,++A++,+++++,+++++
5,3,1,0,5,597,RRNRR,+++++,+++++
5,11,1,1,1,533,++N++,++n++,++n++
5,16,5,0,1,545,NNANN,++n++,++n++
5,10,1,1,1,492,EENEE,+++++,++e++
5,4,5,0,1,532,NNENN,+++++,+++++
5,11,5,0,1,358,++E++,++e++,++e++
5,13,1,0,5,545,++N++,++a++,++a++
5,14,5,0,1,547,AAAAA,++a++,++a++
5,13,1,0,5,581,++R++,++a++,++a++
5,7,5,0,1,534,++A++,+++++,++r++
5,4,1,0,5,763,AARAA,+++++,+++++
5,12,5,0,1,471,++E++,++a++,++a++
5,10,5,0,1,610,RRERR,+++++,++r++
5,7,1,0,5,437,++N++,+++++,++a++
5,16,1,1,1,524,EENEE,++e++,++e++
5,1,5,0,1,515,++A++,+++++,+++++
5,14,1,0,5,536,RRRRR,++r++,++r++
5,1,5,0,1,481,++A++,+++++,+++++
5,3,5,0,1,560,EEAEE,+++++,+++++
5,4,5,0,1,604,RRARR,+++++,+++++
5,7,5,1,5,403,++E++,+++++,++r++
5,4,1,0,5,667,EEREE,+++++,+++++
5,1,1,0,5,375,++R++,+++++,+++++
5,5,1,0,5,440,++N++,+++++,++n++
5,13,5,1,5,401,++E++,++r++,++r++
5,1,1,1,1,493,++R++,+++++,+++++
5,1,5,1,5,801,++A++,+++++,+++++
5,1,1,1,1,538,++N++,+++++,+++++
5,13,5,1,5,458,++A++,++r++,++r++
5,16,1,1,1,563,AARAA,++a++,++a++
5,4,1,1,1,935,EENEE,+++++,+++++
5,1,5,1,5,498,++E++,+++++,+++++
5,6,1,1,1,532,++N++,+++++,++r++
5,9,5,1,5,901,AAEAA,+++++,++a++
5,9,5,1,5,465,EEAEE,+++++,++e++
5,10,1,1,1,652,EEREE,+++++,++e++
5,13,1,1,1,654,++R++,++e++,++e++
5,10,5,1,5,545,NNENN,+++++,++n++
5,16,5,0,1,943,RRARR,++r++,++r++
5,2,5,1,5,613,EEEEE,+++++,+++++
5,12,1,1,1,532,++R++,++n++,++n++
5,4,1,1,1,715,AANAA,+++++,+++++
5,10,5,1,5,627,NNANN,+++++,++n++
5,10,1,1,1,639,AANAA,+++++,++a++
5,1,1,1,1,577,++R++,+++++,+++++
5,6,5,0,1,474,++A++,+++++,++e++
5,14,5,1,5,576,EEEEE,++e++,++e++
5,7,5,1,5,491,++A++,+++++,++n++
5,16,1,1,1,1036,EEREE,++e++,++e++
5,10,1,1,1,492,AARAA,+++++,++a++
5,7,1,1,1,358,++R++,+++++,++e++
5,7,1,1,1,432,++R++,+++++,++a++
5,1,1,1,1,407,++R++,+++++,+++++
5,16,5,1,5,780,NNENN,++n++,++n++
5,11,5,0,1,486,++A++,++a++,++a++
5,9,1,1,1,500,NNRNN,+++++,++n++
4,11,5,1,5,534,++R++,++r++,++r++
4,15,1,1,1,384,AAEAA,++a++,++a++
4,2,1,1,1,387,EEEEE,+++++,+++++
4,9,5,1,5,415,RRNRR,+++++,++r++
4,11,1,1,1,374,++E++,++e++,++e++
4,13,5,1,5,389,++N++,++e++,++e++
