"Subj","Condition","Trial","SetSize","ColSeq","LocSeq","ProbeType","ProbeCol","ProbeLoc","LagPos","LagTime","RT1","Choice","RT2","Conf","Acc"
1,1,1,5,"1  4  6  5  3","1  3  5  6  4",1,5,2,NA,NA,1.31880871090993,"k",0.257507737064316,"d","Correct"
1,1,2,3,"2  4  6","2  1  6",0,4,1,1,1,1.28619003793892,"j",1.25817632568464,"d","Correct"
1,1,3,3,"4  3  6","4  5  2",1,4,3,NA,NA,1.20694613771593,"k",0.542308378426469,"d","Correct"
1,1,4,4,"3  1  5  6","1  2  4  5",1,1,3,NA,NA,1.3637396772483,"k",0.492428045225097,"d","Correct"
1,1,5,5,"1  2  4  6  5","4  1  2  5  3",1,2,6,NA,NA,1.69580274251143,"k",0.547171417368645,"d","Correct"
1,1,6,2,"4  6","4  3",0,6,3,0,0.5,1.10461163151035,"j",0.283924382777968,"d","Correct"
1,1,7,2,"3  2","1  4",1,3,3,NA,NA,1.53196593125949,"k",1.19795143239458,"d","Correct"
1,1,8,5,"4  2  1  5  6","3  4  1  6  5",0,5,6,1,1,2.14142626403259,"j",0.35083214380893,"d","Correct"
1,1,9,5,"2  6  1  4  3","5  4  2  1  6",0,6,4,3,2,1.76813769243063,"j",0.488901579831236,"d","Correct"
1,1,10,4,"4  3  1  2","6  3  2  5",0,4,6,3,2,0.824992174645786,"j",0.214949883019472,"d","Correct"
1,1,11,4,"1  2  5  4","3  4  5  6",1,1,2,NA,NA,2.99356494772496,"k",2.32900566836383,"s","Correct"
1,1,12,5,"6  1  4  5  2","5  6  2  3  1",0,6,5,4,2.5,1.04313649259325,"j",0.352535761945092,"d","Correct"
1,1,13,2,"2  1","6  1",1,1,2,NA,NA,1.51784346816089,"k",0.936602404685345,"d","Correct"
1,1,14,4,"3  6  2  1","2  1  5  6",0,6,1,2,1.5,1.05473009092498,"j",0.228016187390722,"d","Correct"
1,1,15,3,"2  1  3","1  6  2",1,2,3,NA,NA,1.35407306300226,"k",0.307448741287772,"d","Correct"
1,1,16,2,"1  3","1  6",0,1,1,1,1,1.23412735903889,"j",0.248183416044185,"d","Correct"
1,1,17,2,"1  6","2  6",0,6,6,0,0.5,1.37749690683427,"j",0.369563491620283,"d","Correct"
1,1,18,2,"5  2","6  3",1,5,4,NA,NA,1.33424692019094,"k",0.248316530076181,"d","Correct"
1,1,19,4,"5  1  6  3","2  3  1  6",1,5,5,NA,NA,2.04966813554938,"k",0.975054551096264,"d","Correct"
1,1,20,4,"2  6  4  5","5  1  4  6",1,6,2,NA,NA,1.84308059073646,"k",0.71250870448057,"s","Correct"
1,1,21,5,"5  4  6  1  2","4  6  2  3  5",1,4,1,NA,NA,1.43523398639718,"k",0.265287814572503,"d","Correct"
1,1,22,4,"1  5  2  3","5  3  4  1",0,5,3,2,1.5,1.85800837863781,"j",0.53472389704757,"s","Correct"
1,1,23,2,"5  6","4  2",0,6,2,0,0.5,0.916786826479893,"j",0.279448913943497,"d","Correct"
1,1,24,4,"3  6  1  4","4  3  2  5",1,6,1,NA,NA,1.0235590707855,"k",0.430192556540987,"d","Correct"
1,1,25,5,"2  4  1  3  5","1  6  4  3  2",0,1,4,2,1.5,2.90014968537093,"j",0.319653577522786,"d","Correct"
1,1,26,2,"5  4","4  6",0,5,4,1,1,0.710395481487922,"j",0.273046159177056,"d","Correct"
1,1,27,2,"4  2","2  5",1,4,4,NA,NA,0.609817114600901,"k",0.28846625770575,"d","Correct"
1,1,28,3,"1  2  4","3  6  2",0,2,6,1,1,0.988511745879578,"j",0.316499891788453,"d","Correct"
1,1,29,4,"6  3  2  4","1  2  5  4",0,2,5,1,1,1.05926140124711,"j",0.25591882036224,"d","Correct"
1,1,30,3,"4  3  2","5  6  1",1,2,3,NA,NA,0.933323151065679,"k",0.295328120052545,"d","Correct"
1,1,31,2,"3  1","3  5",0,1,5,0,0.5,0.73468381191492,"j",0.272714732403074,"d","Correct"
1,1,32,4,"5  6  3  4","5  6  4  1",1,6,2,NA,NA,1.50545058194371,"k",0.244817834503237,"d","Correct"
1,1,33,2,"3  4","6  3",0,4,3,0,0.5,0.774168874920861,"j",0.230198231243548,"d","Correct"
1,1,34,2,"1  4","5  6",1,4,1,NA,NA,0.824277705452232,"k",0.294322067740723,"d","Correct"
1,1,35,5,"4  6  3  1  2","3  4  2  1  6",0,1,1,1,1,1.32161799049709,"j",0.268348229930552,"d","Correct"
1,1,36,3,"6  1  5","6  2  5",0,5,5,0,0.5,0.825088161634767,"j",0.247115183481583,"d","Correct"
1,1,37,3,"4  1  5","6  4  3",1,5,2,NA,NA,0.988449565628798,"k",0.36446108889686,"d","Correct"
1,1,38,3,"4  1  3","5  4  6",0,3,6,0,0.5,0.805235154540696,"j",0.252543277907535,"d","Correct"
1,1,39,3,"2  4  6","2  3  4",1,4,5,NA,NA,0.857930200555529,"k",0.246612006402756,"d","Correct"
1,1,40,5,"3  1  5  6  2","6  4  5  3  2",1,5,1,NA,NA,0.908015487108514,"k",0.206739373289565,"d","Correct"
1,1,41,5,"6  4  1  3  5","5  4  1  3  2",0,1,1,2,1.5,0.878127613796778,"j",0.194175340459424,"d","Correct"
1,1,42,4,"1  2  5  6","5  2  6  1",0,6,1,0,0.5,2.22942550579569,"j",0.49154665526089,"d","Correct"
1,1,43,3,"6  4  1","4  1  2",0,1,2,0,0.5,0.750968397038378,"j",0.216321772535593,"d","Correct"
1,1,44,4,"3  2  5  4","6  1  5  2",1,4,4,NA,NA,0.843026862170063,"k",0.248363618033409,"d","Correct"
1,1,45,5,"1  6  3  4  5","5  6  1  3  2",0,4,3,1,1,1.07777179787558,"j",1.06576738730359,"d","Correct"
1,1,46,4,"2  4  5  1","3  5  2  6",0,4,5,2,1.5,1.4104892650023,"j",0.217236969238002,"s","Correct"
1,1,47,5,"4  1  3  2  5","3  4  5  6  1",0,1,4,3,2,2.95184079199544,"j",0.881334424405622,"s","Correct"
1,1,48,2,"3  5","4  5",0,3,4,1,1,0.801400202659352,"j",0.216771221048248,"d","Correct"
1,1,49,5,"5  3  1  6  4","6  5  3  2  4",0,1,3,2,1.5,4.12730349908793,"k",0.857489807419142,"s","Incorrect"
1,1,50,3,"1  6  5","5  2  1",0,5,1,0,0.5,1.94222036016845,"j",0.743595811465866,"d","Correct"
1,1,51,4,"4  5  1  2","6  1  4  2",0,2,2,0,0.5,0.773027595655776,"j",0.197685506175731,"d","Correct"
1,1,52,4,"4  1  6  5","3  4  2  5",1,5,1,NA,NA,0.977068466795117,"k",0.24913423056023,"d","Correct"
1,1,53,2,"2  3","6  3",1,2,1,NA,NA,0.826543662459017,"k",0.224553713323076,"d","Correct"
1,1,54,3,"3  5  4","5  3  4",0,3,5,2,1.5,0.726619999281638,"j",0.184599279976965,"d","Correct"
1,1,55,5,"3  6  4  1  5","1  6  4  2  3",0,1,2,1,1,9.65613566644106,"j",0.478135944742917,"s","Correct"
1,1,56,2,"4  2","4  6",0,2,6,0,0.5,0.8862044058028,"j",0.250244721545641,"d","Correct"
1,1,57,5,"2  5  4  1  3","5  6  2  1  4",1,1,3,NA,NA,3.44747202567851,"k",0.444993267327618,"s","Correct"
1,1,58,5,"5  2  3  1  4","1  4  6  5  3",1,4,2,NA,NA,1.11442041516489,"k",0.24509311794418,"d","Correct"
1,1,59,5,"2  5  3  1  4","3  6  1  5  4",1,4,2,NA,NA,0.978508573479303,"k",0.226502430312166,"d","Correct"
1,1,60,5,"2  5  1  3  6","6  1  2  5  4",0,2,6,4,2.5,1.18452080004863,"j",0.336586527592317,"d","Correct"
1,1,61,5,"6  2  1  5  3","1  6  5  3  2",1,5,4,NA,NA,4.53846286193948,"j",0.756729729313747,"s","Incorrect"
1,1,62,4,"4  6  2  3","6  1  5  4",1,2,2,NA,NA,0.922173568020526,"k",0.260839511866834,"d","Correct"
1,1,63,5,"3  6  4  2  1","4  3  6  5  2",0,6,3,3,2,0.97756771987747,"j",0.169600558294178,"d","Correct"
1,1,64,3,"3  1  2","4  6  1",0,3,4,2,1.5,0.67434844303375,"j",0.206362367787733,"d","Correct"
1,1,65,4,"4  5  1  6","6  2  4  5",0,5,2,2,1.5,0.937722554738912,"j",0.227746940867519,"d","Correct"
1,1,66,3,"4  2  1","3  1  5",0,2,1,1,1,0.705822818280467,"j",0.213125828378224,"d","Correct"
1,1,67,5,"5  4  6  2  3","6  1  4  3  5",1,4,2,NA,NA,1.41979245681114,"k",0.170556806036075,"d","Correct"
1,1,68,5,"2  6  4  1  5","1  5  3  4  2",1,4,6,NA,NA,1.46728186881228,"k",0.208001390905793,"d","Correct"
1,1,69,3,"6  3  4","6  3  2",0,6,6,2,1.5,0.734679586072843,"j",0.248705005721604,"d","Correct"
1,1,70,3,"3  1  5","4  5  1",0,3,4,2,1.5,0.83808383407063,"j",0.220098770008235,"d","Correct"
1,1,71,5,"1  5  6  4  2","3  4  6  1  5",1,5,2,NA,NA,1.15479682904879,"k",0.22021830097583,"d","Correct"
1,1,72,3,"5  6  2","1  5  6",1,2,3,NA,NA,0.874936801018976,"k",0.230971560383296,"d","Correct"
1,1,73,2,"3  5","1  3",1,3,4,NA,NA,0.880968587201551,"k",0.228971529594673,"d","Correct"
1,1,74,4,"2  1  6  3","2  6  5  4",1,6,1,NA,NA,1.15102979249014,"k",0.912356332681156,"d","Correct"
1,1,75,2,"5  6","5  2",1,5,4,NA,NA,0.887128054189361,"k",0.235181102998922,"d","Correct"
1,1,76,3,"6  4  5","5  1  4",1,6,3,NA,NA,0.833208721293431,"k",0.231193718949726,"d","Correct"
1,1,77,3,"4  5  3","5  2  6",0,3,6,0,0.5,0.989260927348823,"j",0.22130736090412,"d","Correct"
1,1,78,4,"1  6  5  2","1  2  4  6",1,2,3,NA,NA,0.943967444110967,"k",0.761315070047658,"d","Correct"
1,1,79,5,"5  4  3  6  1","4  2  1  6  5",0,4,2,3,2,0.946115379379535,"j",0.179438620999008,"d","Correct"
1,1,80,5,"3  2  6  4  5","3  5  1  2  4",0,4,2,1,1,1.6274838520003,"j",0.217521911747099,"d","Correct"
1,1,81,2,"6  3","2  3",1,6,6,NA,NA,0.780237788145769,"k",0.196274678542068,"d","Correct"
1,1,82,5,"3  1  5  2  6","1  4  6  5  3",1,2,2,NA,NA,1.42764588286764,"k",0.185682001141231,"d","Correct"
1,1,83,2,"2  6","1  3",1,2,6,NA,NA,0.725709632113194,"k",0.167707984638582,"d","Correct"
1,1,84,3,"5  2  6","5  2  6",1,5,3,NA,NA,0.696473745898402,"k",0.171830897487325,"d","Correct"
1,1,85,4,"3  1  4  5","3  6  5  2",1,3,4,NA,NA,0.67254853606255,"k",0.189248913883148,"d","Correct"
1,1,86,2,"2  3","1  5",0,2,1,1,1,0.809252723177906,"j",0.159930925588924,"d","Correct"
1,1,87,3,"4  6  2","5  1  6",1,6,2,NA,NA,0.648705730151505,"k",0.166000744352004,"d","Correct"
1,1,88,3,"5  4  6","6  5  4",0,6,4,0,0.5,0.974713163408069,"j",0.182733872450171,"d","Correct"
1,1,89,3,"3  5  1","2  5  6",1,1,3,NA,NA,0.710802067885652,"k",0.169457483348197,"d","Correct"
1,1,90,2,"1  5","3  2",0,5,2,0,0.5,0.854184293208164,"j",0.19554390967096,"d","Correct"
1,1,91,5,"4  5  6  1  2","5  1  6  4  2",0,4,5,4,2.5,0.834917772655444,"j",0.208940735278247,"d","Correct"
1,1,92,5,"3  5  1  4  6","5  4  3  2  6",1,5,1,NA,NA,0.823686389377144,"k",0.278361363244585,"d","Correct"
1,1,93,2,"1  3","6  1",0,3,1,0,0.5,0.654394921262337,"j",0.243724246886813,"d","Correct"
1,1,94,2,"1  4","2  6",0,1,2,1,1,0.58115865955051,"j",0.20513476060114,"d","Correct"
1,1,95,2,"6  5","1  3",1,6,4,NA,NA,0.752537090067108,"k",0.209848083987708,"d","Correct"
1,1,96,5,"3  1  2  6  4","1  4  6  5  2",0,1,4,3,2,2.36851155873501,"j",0.425277901953905,"s","Correct"
1,1,97,3,"5  6  2","1  2  6",0,6,2,1,1,0.871330346467857,"j",0.22801830031176,"d","Correct"
1,1,98,5,"4  1  6  2  3","3  4  1  6  5",1,6,2,NA,NA,3.33794332481421,"j",0.156140646898166,"s","Incorrect"
1,1,99,2,"2  5","4  1",0,2,4,1,1,1.00952957621757,"j",0.152202463726553,"d","Correct"
1,1,100,4,"5  4  1  3","4  6  2  5",1,5,1,NA,NA,0.805670114451004,"k",0.188965480603656,"d","Correct"
1,1,101,4,"6  4  3  5","5  6  3  1",1,3,2,NA,NA,0.769025723004233,"j",4.83346830874825,"a","Incorrect"
1,1,102,2,"4  1","3  1",1,1,4,NA,NA,0.94783107135072,"k",0.981121351399906,"d","Correct"
1,1,103,3,"6  1  3","1  3  5",1,6,6,NA,NA,0.869214406862284,"k",0.273895855324099,"d","Correct"
1,1,104,2,"2  1","3  2",1,2,4,NA,NA,1.12259138308491,"k",0.685314201939036,"d","Correct"
1,1,105,2,"1  5","6  3",1,5,2,NA,NA,0.701397455862207,"k",0.30473303392273,"d","Correct"
1,1,106,3,"1  2  6","4  5  3",1,2,6,NA,NA,0.956076897048661,"k",0.317439236160681,"d","Correct"
1,1,107,2,"1  5","2  4",1,5,1,NA,NA,0.692138031705326,"k",0.319462509081859,"d","Correct"
1,1,108,4,"6  5  3  4","1  5  6  3",0,4,3,0,0.5,0.734249153850669,"j",0.344244357519528,"d","Correct"
1,1,109,5,"1  5  3  4  2","6  5  4  2  3",0,3,4,2,1.5,1.8975891267869,"j",0.525005365310335,"d","Correct"
1,1,110,2,"5  6","3  2",1,6,5,NA,NA,0.611066454690445,"k",0.209751191461237,"d","Correct"
1,1,111,3,"5  2  4","6  4  3",1,4,5,NA,NA,0.856513336003445,"k",0.277830718191126,"d","Correct"
1,1,112,3,"4  2  5","4  5  3",0,5,3,0,0.5,0.817870422997657,"j",0.21651133174737,"d","Correct"
1,1,113,5,"1  6  2  5  3","3  6  1  2  5",0,1,3,4,2.5,0.69526938084482,"j",0.194596415459273,"d","Correct"
1,1,114,3,"3  5  6","5  6  1",0,5,6,1,1,0.92201389155116,"j",0.180679811249775,"d","Correct"
1,1,115,3,"6  3  2","4  5  3",0,2,3,0,0.5,0.668719017407057,"j",0.225428764523713,"d","Correct"
1,1,116,3,"5  4  3","6  4  1",1,5,5,NA,NA,0.79151052430916,"k",0.214795337930354,"d","Correct"
1,1,117,2,"5  3","1  6",0,5,1,1,1,0.505554416925861,"j",0.188850779170025,"d","Correct"
1,1,118,2,"3  1","3  6",1,1,2,NA,NA,0.592916763886024,"k",0.264232863228699,"d","Correct"
1,1,119,4,"3  6  1  4","2  4  3  1",1,4,5,NA,NA,0.848970207509865,"k",0.246323139897413,"d","Correct"
1,1,120,5,"4  6  3  1  2","3  2  1  5  6",1,1,4,NA,NA,2.61164992277281,"k",0.682413161204749,"d","Correct"
1,1,121,4,"5  2  4  3","2  6  5  4",1,3,3,NA,NA,0.898493457037603,"k",0.197838843881982,"d","Correct"
1,1,122,5,"4  1  2  6  3","5  4  3  1  2",1,3,6,NA,NA,0.741243828383631,"k",0.238634219844698,"d","Correct"
1,1,123,3,"6  2  4","1  2  5",0,6,1,2,1.5,0.86862792032116,"j",0.281323075000728,"d","Correct"
1,1,124,3,"1  6  4","2  3  4",0,4,4,0,0.5,0.925431088737241,"j",0.223669908592001,"d","Correct"
1,1,125,2,"1  2","6  3",0,2,3,0,0.5,0.522131792551136,"j",0.196776346390834,"d","Correct"
1,1,126,2,"5  3","5  3",1,5,1,NA,NA,0.592191126395392,"k",0.231492848214657,"d","Correct"
1,1,127,3,"1  5  3","2  5  4",0,3,4,0,0.5,0.549534870594016,"j",0.182901698758542,"d","Correct"
1,1,128,5,"2  6  3  4  5","5  4  3  2  1",1,6,6,NA,NA,0.750933382916628,"k",0.256317256921648,"d","Correct"
1,1,129,5,"2  6  4  3  1","5  2  3  6  4",0,3,6,1,1,0.733752013689355,"j",0.207754782823486,"d","Correct"
1,1,130,2,"1  5","5  1",1,1,4,NA,NA,0.610478157073885,"k",0.377122316099758,"d","Correct"
1,1,131,5,"1  6  4  5  3","2  5  4  6  1",1,1,3,NA,NA,1.08920330497085,"k",0.66919382097376,"d","Correct"
1,1,132,4,"4  1  3  5","2  4  5  6",0,3,5,1,1,1.09394741663709,"j",0.273293672797081,"d","Correct"
1,1,133,5,"6  4  2  1  3","3  5  1  2  6",0,4,5,3,2,0.958026519575469,"j",0.190701999940302,"d","Correct"
1,1,134,4,"3  4  6  1","2  6  4  5",1,1,3,NA,NA,0.946789099379203,"k",0.228158658645498,"d","Correct"
1,1,135,3,"2  6  5","6  1  4",0,5,4,0,0.5,0.778158975583665,"j",0.154185289299676,"d","Correct"
1,1,136,3,"5  2  6","4  2  1",0,6,1,0,0.5,0.891584506734034,"j",0.350898851748298,"d","Correct"
1,1,137,4,"1  4  5  3","3  5  2  6",1,4,1,NA,NA,0.612279573274463,"k",0.210987552177812,"d","Correct"
1,1,138,2,"1  5","4  3",1,5,2,NA,NA,0.941717484935907,"k",0.911046019724381,"d","Correct"
1,1,139,3,"3  1  2","1  3  6",0,1,3,1,1,0.705786898621227,"j",0.773121469723719,"d","Correct"
1,1,140,2,"3  6","2  4",0,6,4,0,0.5,3.33773988069242,"j",0.371866575670538,"d","Correct"
1,1,141,3,"6  1  4","6  2  4",0,6,6,2,1.5,0.972670572351035,"j",0.173297566609108,"d","Correct"
1,1,142,2,"4  3","2  4",0,4,2,1,1,0.626002090584734,"j",0.208079568988069,"d","Correct"
1,1,143,5,"2  6  4  1  5","3  4  6  5  2",1,1,1,NA,NA,1.23879238708469,"k",0.17280736890325,"d","Correct"
1,1,144,4,"4  1  6  3","2  1  6  5",0,1,1,2,1.5,1.42548406268861,"j",0.263520808801786,"d","Correct"
1,1,145,3,"4  2  1","6  2  3",0,4,6,2,1.5,1.31621042159122,"j",0.310939890714053,"d","Correct"
1,1,146,4,"3  6  4  1","3  2  1  5",1,4,4,NA,NA,1.84562032195481,"k",0.587008130822142,"s","Correct"
1,1,147,4,"3  5  1  6","1  4  2  5",0,3,1,3,2,1.03106869438716,"j",0.189110064779015,"d","Correct"
1,1,148,2,"6  3","6  1",0,6,6,1,1,0.593179369800055,"j",0.13649681899733,"d","Correct"
1,1,149,2,"5  6","3  4",1,5,5,NA,NA,0.598475557577331,"k",0.181879950460825,"d","Correct"
1,1,150,5,"2  6  5  3  4","3  2  5  1  6",1,2,4,NA,NA,1.26991360265447,"k",0.386657929234843,"d","Correct"
1,1,151,2,"4  3","3  5",1,3,4,NA,NA,0.910686521283878,"k",0.22534454952347,"d","Correct"
1,1,152,2,"5  6","6  3",1,6,4,NA,NA,0.747431367039098,"k",0.172766921555194,"d","Correct"
1,1,153,5,"1  4  2  3  5","5  1  2  6  4",0,2,2,2,1.5,1.74947546732528,"j",0.582889141969645,"d","Correct"
1,1,154,4,"5  6  2  1","5  6  2  3",0,6,6,2,1.5,1.1948653601371,"j",0.242294101116386,"d","Correct"
1,1,155,5,"2  5  1  4  3","2  5  4  6  1",0,4,6,1,1,1.91962749803906,"j",0.698353943872917,"d","Correct"
1,1,156,4,"2  1  5  3","3  6  2  4",0,2,3,3,2,0.825775464699291,"j",0.19982317868471,"d","Correct"
1,1,157,5,"4  6  1  5  3","4  1  5  2  3",1,5,6,NA,NA,0.863165113619289,"k",0.539873689573596,"d","Correct"
1,1,158,5,"5  1  3  6  2","1  3  2  5  6",1,3,4,NA,NA,1.1419221968099,"k",0.54327941661677,"d","Correct"
1,1,159,5,"2  4  5  1  3","1  4  5  3  2",1,5,6,NA,NA,0.792718813358988,"k",0.216078182912042,"d","Correct"
1,1,160,2,"2  3","2  5",0,3,5,0,0.5,0.642766610654235,"j",0.160099959280615,"d","Correct"
1,1,161,5,"5  6  4  2  1","5  3  1  4  2",0,4,1,2,1.5,1.68080100237012,"j",0.212881333216956,"d","Correct"
1,1,162,2,"4  5","6  5",1,4,4,NA,NA,0.62362777090766,"k",0.206301093074217,"d","Correct"
1,1,163,5,"4  2  3  5  1","5  3  1  6  4",1,1,2,NA,NA,1.1336422625277,"k",0.239691887801655,"d","Correct"
1,1,164,2,"2  6","6  3",0,6,3,0,0.5,0.569749489050537,"j",0.13045084605892,"d","Correct"
1,1,165,5,"1  4  2  5  6","5  1  4  2  3",0,2,4,2,1.5,1.06846377653255,"j",0.201163676229498,"d","Correct"
1,1,166,5,"1  4  3  6  2","6  2  5  3  4",1,3,1,NA,NA,0.872557651808165,"k",0.157255967417314,"d","Correct"
1,1,167,4,"2  4  6  3","5  2  4  1",0,4,2,2,1.5,0.922554497518831,"j",0.165357812631555,"d","Correct"
1,1,168,5,"3  6  5  1  2","6  2  1  3  5",0,1,3,1,1,2.78193386013481,"j",0.414084853102395,"s","Correct"
1,1,169,4,"2  6  3  1","5  1  6  4",0,6,1,2,1.5,0.80086020038334,"j",0.136186521434411,"d","Correct"
1,1,170,3,"1  2  6","6  4  2",1,1,1,NA,NA,0.66626259565146,"k",0.20692380112132,"d","Correct"
1,1,171,2,"2  1","4  1",0,1,1,0,0.5,0.634319151909949,"j",0.120263245827118,"d","Correct"
1,1,172,4,"4  3  5  6","1  3  5  2",1,4,6,NA,NA,0.999031074731192,"k",0.222377706387761,"d","Correct"
1,1,173,2,"1  4","1  3",0,1,1,1,1,0.529110771098658,"j",0.131120943908172,"d","Correct"
1,1,174,3,"5  4  2","2  6  3",1,4,1,NA,NA,0.581158961396341,"k",0.149162272042304,"d","Correct"
1,1,175,3,"3  2  6","6  1  3",0,2,1,1,1,0.702544470198518,"j",0.19386715581777,"d","Correct"
1,1,176,5,"5  2  1  4  3","4  3  2  1  6",0,2,3,3,2,0.849277184767743,"j",0.0785991574275613,"d","Correct"
1,1,177,4,"1  2  6  3","5  1  3  6",0,6,3,1,1,0.638687465457679,"j",0.188677821481633,"d","Correct"
1,1,178,2,"1  3","5  3",1,3,1,NA,NA,0.576782196164004,"k",0.176733176394009,"d","Correct"
1,1,179,3,"5  4  2","2  4  6",0,5,2,2,1.5,1.23280738701351,"j",0.238831627048967,"d","Correct"
1,1,180,2,"4  3","3  5",1,4,1,NA,NA,0.44886534625175,"k",0.182201718167107,"d","Correct"
1,1,181,2,"6  5","1  2",1,6,5,NA,NA,2.97013204851646,"j",0.746925473347346,"a","Incorrect"
1,1,182,5,"5  1  6  2  4","6  5  4  2  3",1,5,1,NA,NA,0.876379322470711,"k",0.192400788542272,"d","Correct"
1,1,183,4,"4  2  6  3","4  1  6  2",1,3,5,NA,NA,0.84376879933825,"k",0.2334201341464,"d","Correct"
1,1,184,4,"6  1  4  2","2  1  5  6",1,1,4,NA,NA,0.643181045044912,"k",0.136522475896982,"d","Correct"
1,1,185,3,"1  4  3","1  3  6",0,3,6,0,0.5,1.21059756730347,"j",0.137264413065623,"d","Correct"
1,1,186,3,"5  6  1","3  6  1",1,1,2,NA,NA,0.651338429900079,"k",0.160656864926295,"d","Correct"
1,1,187,4,"4  3  5  1","3  5  6  2",0,4,3,3,2,0.797434551512652,"j",0.172740660963882,"d","Correct"
1,1,188,3,"4  5  2","6  2  4",0,2,4,0,0.5,0.573476681953252,"j",0.182167609582848,"d","Correct"
1,1,189,5,"4  1  5  3  6","1  4  2  5  3",1,3,6,NA,NA,0.80618778013195,"k",0.189504275495892,"d","Correct"
1,1,190,2,"4  3","6  4",1,4,2,NA,NA,0.569623015627712,"k",0.146282360519308,"d","Correct"
1,1,191,4,"3  6  5  4","4  1  3  5",0,5,3,1,1,1.9196184426628,"j",0.218386398341863,"d","Correct"
1,1,192,3,"5  2  6","3  5  2",1,2,1,NA,NA,0.689084558802278,"k",0.149077755196231,"d","Correct"
1,1,193,3,"2  3  4","2  5  3",1,4,1,NA,NA,0.622353981301785,"k",0.117111673013824,"d","Correct"
1,1,194,4,"1  5  4  3","3  2  5  1",0,4,5,1,1,1.03586894938644,"j",0.161937596986718,"d","Correct"
1,1,195,4,"1  3  5  4","6  3  1  4",0,5,1,1,1,4.89439620108851,"k",1.85801018971279,"s","Incorrect"
1,1,196,5,"1  3  6  5  2","1  3  5  2  4",1,6,6,NA,NA,1.6467576168543,"k",0.548131287261185,"d","Correct"
1,1,197,2,"1  3","4  6",0,3,6,0,0.5,0.625521853792179,"j",0.231550198931473,"d","Correct"
1,1,198,3,"6  5  1","2  3  4",1,6,1,NA,NA,0.653568769093454,"k",0.210944690063116,"d","Correct"
1,1,199,2,"2  4","2  5",0,4,5,0,0.5,0.621675431767926,"j",0.164343006789295,"d","Correct"
1,1,200,3,"3  5  4","5  6  4",1,4,3,NA,NA,0.589075171395962,"k",0.141049862222189,"d","Correct"
1,1,201,3,"1  5  3","3  5  2",1,5,1,NA,NA,0.862072431540582,"k",0.402748729304221,"d","Correct"
1,1,202,5,"6  4  2  3  5","1  4  2  6  5",1,2,3,NA,NA,2.95407565887672,"j",0.435520739981257,"s","Incorrect"
1,1,203,5,"4  5  2  6  1","2  5  3  4  6",0,4,2,4,2.5,0.929585997248978,"j",0.115591879017757,"d","Correct"
1,1,204,2,"4  2","2  3",0,4,2,1,1,0.578314365841379,"j",0.154344965769269,"d","Correct"
1,1,205,5,"6  2  3  1  5","1  6  5  4  2",1,6,3,NA,NA,0.995815812437741,"k",0.179121682826917,"d","Correct"
1,1,206,4,"3  1  6  4","3  1  5  6",1,6,4,NA,NA,2.02310237797201,"k",0.445935932004886,"d","Correct"
1,1,207,5,"3  2  5  4  6","3  2  6  5  4",0,6,4,0,0.5,1.61917463866757,"j",0.137985824714178,"d","Correct"
1,1,208,5,"2  5  4  3  6","4  5  6  1  2",1,4,3,NA,NA,0.860053988153595,"k",0.12069458358701,"d","Correct"
1,1,209,4,"6  3  2  4","3  1  2  4",0,3,1,2,1.5,1.47941939341672,"j",0.195497425405392,"d","Correct"
1,1,210,5,"1  2  4  6  3","1  2  5  4  6",1,4,3,NA,NA,3.4827158522512,"k",0.470890134438832,"s","Correct"
1,1,211,5,"2  5  6  4  3","2  1  6  3  4",0,4,3,1,1,2.93955204260601,"j",0.277720544445401,"d","Correct"
1,1,212,3,"4  1  6","2  4  5",1,6,6,NA,NA,0.737746943885668,"k",0.211753033324385,"d","Correct"
1,1,213,4,"5  4  6  1","6  2  3  4",0,1,4,0,0.5,0.766511044993422,"j",0.119192296651818,"d","Correct"
1,1,214,4,"2  1  5  6","1  6  4  5",1,2,3,NA,NA,0.6859000847885,"k",0.161975629567678,"d","Correct"
1,1,215,5,"5  4  6  3  1","2  4  1  6  5",1,1,3,NA,NA,0.746629060694886,"k",0.148002278332569,"d","Correct"
1,1,216,3,"1  2  4","1  5  3",0,2,5,1,1,1.74129997171713,"j",0.198728987376398,"d","Correct"
1,1,217,4,"6  4  1  5","6  4  5  2",0,1,5,1,1,0.554164884518286,"j",0.171523920229447,"d","Correct"
1,1,218,5,"1  6  2  4  3","3  6  5  4  2",0,3,2,0,0.5,0.988180922797255,"j",0.140262044480551,"d","Correct"
1,1,219,3,"4  6  2","4  2  1",0,2,1,0,0.5,0.518312234809855,"j",0.160970482793346,"d","Correct"
1,1,220,2,"3  1","6  1",0,3,6,1,1,0.477693740531777,"j",0.137708126505913,"d","Correct"
1,1,221,2,"1  3","2  4",0,1,2,1,1,0.41576402172177,"j",0.14238130439071,"d","Correct"
1,1,222,4,"6  2  1  5","1  5  6  4",0,1,6,1,1,0.835796747851873,"j",0.129770787295456,"d","Correct"
1,1,223,4,"5  1  6  3","4  6  5  2",0,3,2,0,0.5,0.591851549782405,"j",0.119213425863109,"d","Correct"
1,1,224,2,"4  2","4  6",1,4,3,NA,NA,0.829934297207728,"k",0.115913344877754,"d","Correct"
1,1,225,4,"2  1  4  6","6  1  3  4",1,4,2,NA,NA,0.842669174804541,"k",0.128024608890883,"d","Correct"
1,1,226,2,"4  1","1  6",0,4,1,1,1,0.454083355946295,"j",0.187399504187852,"d","Correct"
1,1,227,4,"3  5  1  6","2  1  4  3",1,5,5,NA,NA,0.791413631782234,"k",0.150771714264465,"d","Correct"
1,1,228,5,"2  3  5  1  6","2  4  3  1  5",0,3,4,3,2,1.2801350096247,"j",0.340198717215117,"s","Correct"
1,1,229,2,"5  2","6  2",0,2,2,0,0.5,0.530268350041297,"j",0.16425215117988,"d","Correct"
1,1,230,5,"1  4  2  3  5","4  6  5  1  3",1,2,2,NA,NA,0.813003761904838,"k",0.123690102081582,"d","Correct"
1,1,231,4,"3  2  4  6","3  2  5  4",0,2,2,2,1.5,0.84240687073634,"j",0.119738637690716,"d","Correct"
1,1,232,2,"2  4","5  4",1,2,6,NA,NA,0.790487870473953,"k",0.126490628138072,"d","Correct"
1,1,233,5,"2  5  1  6  3","5  4  3  2  1",0,6,2,1,1,1.11253327473469,"j",0.107247349717909,"d","Correct"
1,1,234,4,"2  5  6  1","5  6  2  3",1,5,1,NA,NA,0.914579125727414,"k",0.157283435392401,"d","Correct"
1,1,235,3,"1  4  5","2  4  1",0,4,4,1,1,0.75865037463609,"j",0.0873520842001199,"d","Correct"
1,1,236,3,"5  6  4","1  2  5",1,5,3,NA,NA,0.563454795108555,"k",0.0920795943434314,"d","Correct"
1,1,237,4,"3  6  2  1","5  6  3  4",0,3,5,3,2,0.699480130843767,"j",0.102834966671708,"d","Correct"
1,1,238,5,"5  4  1  2  6","2  6  4  1  5",1,1,3,NA,NA,2.3701321692547,"j",0.282918028620315,"s","Incorrect"
1,1,239,2,"4  5","2  5",1,5,4,NA,NA,0.667001816206721,"k",0.143671393673685,"d","Correct"
1,1,240,5,"3  5  4  1  6","5  1  3  2  4",1,5,6,NA,NA,0.889074356411584,"k",0.1170630758279,"d","Correct"
1,1,241,5,"4  5  2  1  6","6  2  1  4  5",0,2,1,2,1.5,0.887779437594872,"j",0.0678181281996331,"d","Correct"
1,1,242,2,"3  4","5  2",1,3,6,NA,NA,0.524533882049127,"k",0.134558666613884,"d","Correct"
1,1,243,3,"5  6  4","4  1  6",1,4,3,NA,NA,0.632579915959923,"k",0.110608403570495,"d","Correct"
1,1,244,2,"5  6","1  5",0,5,1,1,1,0.549362818443569,"j",0.0786625450618885,"d","Correct"
1,1,245,2,"3  5","5  2",0,3,5,1,1,0.470739513345961,"j",0.0913672380706885,"d","Correct"
1,1,246,3,"4  6  1","5  1  2",1,1,4,NA,NA,0.598762914853069,"k",0.0940892841999812,"d","Correct"
1,1,247,2,"4  5","6  2",1,5,5,NA,NA,0.74950353899203,"k",0.110822714143978,"d","Correct"
1,1,248,4,"6  5  3  4","3  2  4  6",1,5,1,NA,NA,0.877581272757197,"k",0.105530148517119,"d","Correct"
1,1,249,5,"2  5  4  3  6","3  2  6  4  1",1,5,5,NA,NA,2.08489415321492,"k",0.161001572918849,"d","Correct"
1,1,250,3,"4  6  1","1  5  2",0,6,5,1,1,0.84172288797663,"j",0.0790495114774785,"d","Correct"
1,1,251,4,"1  2  6  3","6  2  4  5",0,2,2,2,1.5,0.735111527524168,"j",0.0891767425337093,"d","Correct"
1,1,252,4,"5  3  6  4","1  2  5  3",1,5,6,NA,NA,0.64922098106581,"k",0.0865383077134538,"d","Correct"
1,1,253,2,"1  6","1  5",0,6,5,0,0.5,0.782624483504151,"j",0.0386193690274013,"d","Correct"
1,1,254,2,"2  6","1  4",1,2,5,NA,NA,0.496626419543645,"k",0.0360044781855322,"d","Correct"
1,1,255,4,"6  1  3  2","4  3  5  2",1,2,6,NA,NA,0.886031749960694,"k",0.114069972100424,"d","Correct"
1,1,256,4,"4  2  1  5","5  1  2  6",1,1,4,NA,NA,0.656800934756575,"k",0.110094661885796,"d","Correct"
1,1,257,3,"6  2  5","1  4  3",0,2,4,1,1,1.25680534170624,"j",0.0461718547430792,"d","Correct"
1,1,258,5,"6  4  3  5  1","1  5  2  6  3",1,1,4,NA,NA,0.819627467853934,"k",0.0582731578419953,"d","Correct"
1,1,259,3,"4  3  6","4  2  5",1,6,1,NA,NA,0.687037138211508,"k",0.0510092367858306,"d","Correct"
1,1,260,3,"4  5  1","3  5  1",1,5,4,NA,NA,0.632408165655761,"k",0.0783670379469186,"d","Correct"
1,1,261,4,"4  6  1  5","3  6  1  4",0,6,6,2,1.5,0.766461240423268,"j",0.119098422583647,"d","Correct"
1,1,262,4,"1  5  3  4","5  1  2  3",1,3,6,NA,NA,0.597883335964525,"k",0.109209649771401,"d","Correct"
1,1,263,3,"4  5  6","6  5  3",0,4,6,2,1.5,0.599926228867389,"j",0.0872781319603746,"d","Correct"
1,1,264,3,"2  5  1","6  5  4",0,5,5,1,1,0.579315890464841,"j",0.0913270925689176,"d","Correct"
1,1,265,2,"2  4","2  6",1,2,4,NA,NA,0.818707743463619,"k",0.0573636962112687,"d","Correct"
1,1,266,4,"2  3  6  1","1  4  6  5",1,1,3,NA,NA,0.626788097250937,"k",0.0887704579818092,"d","Correct"
1,1,267,4,"3  1  5  6","4  1  3  5",1,1,6,NA,NA,0.768835861946172,"k",0.11350008708223,"d","Correct"
1,1,268,3,"1  2  6","5  2  6",0,1,5,2,1.5,1.132228114589,"j",0.0862083901683945,"d","Correct"
1,1,269,4,"6  4  1  3","2  6  4  3",1,4,5,NA,NA,1.23024713027553,"k",0.100276822854994,"d","Correct"
1,1,270,2,"4  1","3  1",0,4,3,1,1,0.523730972013254,"j",0.0946866371923534,"d","Correct"
1,1,271,3,"5  3  1","1  2  6",0,3,2,1,1,1.22575083407583,"j",0.0318061038669839,"d","Correct"
1,1,272,3,"6  2  3","3  4  1",0,2,4,1,1,0.701826378854548,"j",0.0731701574641193,"d","Correct"
1,1,273,4,"5  4  3  6","5  1  3  6",0,4,1,2,1.5,0.713922852419273,"k",1.34049724278884,"a","Incorrect"
1,1,274,5,"2  5  1  3  6","6  5  1  4  3",0,1,1,2,1.5,0.998646824928528,"j",0.238009398877239,"d","Correct"
1,1,275,2,"4  5","3  4",1,5,5,NA,NA,0.536063790900698,"k",0.0820842699358764,"d","Correct"
1,1,276,4,"5  6  4  1","2  1  4  3",0,6,1,2,1.5,0.802089618644914,"j",0.105482155022401,"d","Correct"
1,1,277,4,"1  5  2  3","2  5  1  4",1,3,3,NA,NA,0.904835842628472,"k",0.164219853671057,"d","Correct"
1,1,278,2,"3  6","1  2",1,3,4,NA,NA,0.608945987396964,"k",0.0795813639147127,"d","Correct"
1,1,279,3,"4  6  5","4  6  2",0,5,2,0,0.5,1.15560788892299,"j",0.156980683976599,"d","Correct"
1,1,280,2,"3  6","3  2",1,3,4,NA,NA,0.554383420933846,"k",0.155716251593731,"d","Correct"
1,1,281,2,"3  6","2  1",1,3,5,NA,NA,0.585133366073933,"k",0.105115110434781,"d","Correct"
1,1,282,4,"6  2  3  5","6  4  3  5",0,3,3,1,1,0.864473313654798,"j",0.0851643052760664,"d","Correct"
1,1,283,4,"2  1  6  3","3  4  5  1",1,6,6,NA,NA,0.973224761383335,"k",0.125910480360744,"d","Correct"
1,1,284,2,"5  1","4  2",0,1,2,0,0.5,0.564001739839568,"j",0.068695896013196,"d","Correct"
1,1,285,4,"6  5  4  2","1  3  6  2",1,4,5,NA,NA,1.18134839986988,"k",0.133366375395326,"d","Correct"
1,1,286,4,"1  2  6  4","3  4  2  5",1,4,1,NA,NA,1.25940695132931,"k",0.120149751776808,"d","Correct"
1,1,287,2,"6  5","1  4",0,5,4,0,0.5,0.62285051777144,"j",0.0854948265123312,"d","Correct"
1,1,288,5,"2  1  4  5  3","4  2  1  3  5",1,5,6,NA,NA,0.785604607858659,"k",0.105584782621463,"d","Correct"
1,1,289,2,"5  3","5  1",0,3,1,0,0.5,0.696987789428931,"j",0.100362848930217,"d","Correct"
1,1,290,5,"6  3  1  4  5","4  3  2  5  6",1,1,1,NA,NA,0.799704734361967,"k",0.0710801766040277,"d","Correct"
1,1,291,5,"4  1  2  3  6","6  5  2  3  1",1,6,4,NA,NA,0.931758683879707,"k",0.085856136028724,"d","Correct"
1,1,292,2,"6  3","3  1",0,3,1,0,0.5,0.48583874970609,"j",0.0818201547926947,"d","Correct"
1,1,293,4,"2  1  4  3","4  6  3  5",1,1,1,NA,NA,0.601920222738045,"k",0.0652983188092549,"d","Correct"
1,1,294,4,"5  2  1  6","4  6  2  3",1,5,5,NA,NA,1.00196199820766,"k",0.105348437298744,"d","Correct"
1,1,295,5,"6  3  2  1  5","3  6  5  2  4",0,6,3,4,2.5,0.732769505355918,"j",0.0708184762274868,"d","Correct"
1,1,296,4,"5  3  6  4","1  3  2  5",0,4,5,0,0.5,0.919485026784059,"j",0.0741777190050925,"d","Correct"
1,1,297,5,"1  6  2  4  5","1  6  5  4  3",0,6,6,3,2,0.814202995578853,"j",0.0929232535722804,"d","Correct"
1,1,298,4,"5  3  1  4","4  5  6  2",1,1,1,NA,NA,0.924284074400475,"k",0.086346333734582,"d","Correct"
1,1,299,5,"3  1  4  5  6","6  2  5  4  3",0,1,2,3,2,0.77037467223272,"j",0.0830399139863403,"d","Correct"
1,1,300,2,"5  1","3  6",1,5,2,NA,NA,1.10709823785419,"k",0.110465328624286,"d","Correct"
1,1,301,5,"5  4  2  6  1","2  5  4  1  6",1,1,3,NA,NA,0.825213729520328,"k",0.111225074699178,"d","Correct"
1,1,302,2,"1  5","3  2",0,1,3,1,1,0.533933966384666,"j",0.09591062222853,"d","Correct"
1,1,303,5,"5  3  6  1  4","3  6  2  4  1",0,3,6,3,2,2.0672231899739,"j",0.0800531490222056,"d","Correct"
1,1,304,4,"6  2  1  4","3  4  1  5",1,2,6,NA,NA,0.728124399138324,"k",0.106079809861058,"d","Correct"
1,1,305,4,"2  4  6  3","6  5  1  2",0,2,6,3,2,0.929439300151898,"j",0.355478759256584,"d","Correct"
1,1,306,5,"3  5  1  6  2","1  4  6  2  3",0,2,3,0,0.5,0.932888493001428,"j",0.094921171439637,"d","Correct"
1,1,307,2,"1  4","3  6",0,4,6,0,0.5,0.654317950562927,"j",0.0996592461883665,"d","Correct"
1,1,308,5,"1  4  5  3  6","6  1  2  5  3",1,1,4,NA,NA,0.543041562064445,"k",0.104360797585286,"d","Correct"
1,1,309,4,"4  2  5  6","3  5  6  4",0,2,5,2,1.5,0.615774646696991,"j",0.0704312079660667,"d","Correct"
1,1,310,5,"6  2  3  4  1","3  6  1  5  2",1,4,4,NA,NA,0.531176604288248,"k",0.133195530628655,"d","Correct"
1,1,311,3,"3  6  4","5  1  6",0,6,1,1,1,0.81524164724533,"j",0.0779381149541223,"d","Correct"
1,1,312,2,"3  1","5  1",0,3,5,1,1,0.557971764732883,"j",0.0786546970689415,"d","Correct"
1,1,313,3,"2  5  6","3  5  1",0,2,3,2,1.5,0.514708496871208,"j",0.0853680512441315,"d","Correct"
1,1,314,2,"3  2","2  1",1,3,3,NA,NA,0.421410954409566,"k",0.0920563522104203,"d","Correct"
1,1,315,5,"3  1  4  2  6","2  5  3  1  4",1,6,6,NA,NA,0.831453789357965,"k",0.125501479195918,"d","Correct"
1,1,316,3,"1  6  4","4  3  6",1,4,1,NA,NA,0.767564788953678,"k",0.136223044785766,"d","Correct"
1,1,317,5,"1  5  4  2  6","2  5  6  1  4",1,4,3,NA,NA,0.778255264418476,"k",0.162329392936499,"d","Correct"
1,1,318,3,"3  2  6","2  5  3",0,6,3,0,0.5,0.826999449735013,"j",0.0730454951162756,"d","Correct"
1,1,319,2,"5  1","6  3",1,1,1,NA,NA,0.513725686691942,"k",0.0604238097234884,"d","Correct"
1,1,320,4,"4  5  3  2","2  6  3  1",0,4,2,3,2,1.26911069261814,"j",0.145844080304414,"d","Correct"
1,1,321,4,"5  2  4  6","4  3  5  6",0,5,4,3,2,1.22321653608287,"j",0.117967406078606,"d","Correct"
1,1,322,4,"6  4  2  5","5  1  2  3",0,2,2,1,1,1.48457009148069,"j",0.0566960131291125,"d","Correct"
1,1,323,3,"5  3  1","4  3  5",1,3,2,NA,NA,0.486078113487565,"k",0.106109692602786,"d","Correct"
1,1,324,4,"6  5  2  4","2  5  6  1",1,6,3,NA,NA,0.52148191837523,"k",0.0841534234300525,"d","Correct"
1,1,325,2,"4  1","5  4",1,1,3,NA,NA,0.524169554073978,"k",0.0221974440296435,"d","Correct"
1,1,326,4,"2  1  6  3","3  4  1  2",0,3,2,0,0.5,1.07289789248171,"j",0.061614289867066,"d","Correct"
1,1,327,3,"6  1  5","6  3  1",1,5,2,NA,NA,0.610283164636712,"k",0.112964310649204,"d","Correct"
1,1,328,4,"6  1  5  4","4  6  1  5",0,4,5,0,0.5,0.743695118759661,"j",0.121073400163823,"d","Correct"
1,1,329,5,"4  2  6  5  3","3  5  4  1  6",0,3,6,0,0.5,0.563843874445411,"j",0.108457147997342,"d","Correct"
1,1,330,5,"1  2  3  6  4","4  1  2  5  6",0,6,5,1,1,2.71911580890583,"j",0.21791129292933,"s","Correct"
1,1,331,5,"1  4  2  5  3","6  3  5  4  1",0,1,6,4,2.5,0.872653336951316,"j",0.42131315634515,"d","Correct"
1,1,332,3,"4  5  1","1  3  2",1,5,6,NA,NA,0.516090347301088,"k",0.110788303713889,"d","Correct"
1,1,333,3,"3  5  2","5  3  1",1,2,4,NA,NA,0.617439628560533,"k",0.120120170881364,"d","Correct"
1,1,334,3,"2  4  1","1  3  5",1,2,6,NA,NA,1.72274973143249,"k",0.141517119641776,"d","Correct"
1,1,335,4,"2  5  1  3","2  6  3  1",0,3,1,0,0.5,0.594944564495108,"j",0.082293750975623,"d","Correct"
1,1,336,4,"5  4  3  2","5  6  3  2",0,2,2,0,0.5,0.866351700554333,"j",0.119039562637681,"d","Correct"
1,1,337,2,"5  6","6  5",1,5,2,NA,NA,0.541693216527165,"k",0.0870982318169808,"d","Correct"
1,1,338,3,"3  5  6","5  1  3",1,6,6,NA,NA,0.827127734233272,"k",0.121077324160524,"d","Correct"
1,1,339,3,"2  4  6","2  1  4",0,6,4,0,0.5,0.619815155620927,"j",0.09052508807099,"d","Correct"
1,1,340,2,"1  5","6  1",0,1,6,1,1,0.482590586212154,"j",0.102553646313481,"d","Correct"
1,1,341,3,"5  6  2","1  2  5",1,5,4,NA,NA,0.681954657316055,"k",0.102012134807865,"d","Correct"
1,1,342,5,"4  6  2  3  1","6  5  3  4  2",0,4,6,4,2.5,0.785357094238407,"j",0.0814138702407945,"d","Correct"
1,1,343,3,"6  3  1","5  3  4",1,6,6,NA,NA,0.605439745676904,"k",0.124774936167341,"d","Correct"
1,1,344,5,"2  1  4  3  5","6  1  3  4  2",0,5,2,0,0.5,0.694818423102788,"j",0.0821636554019278,"d","Correct"
1,1,345,3,"1  3  6","3  2  5",0,3,2,1,1,0.526216069127713,"j",0.0882389073904051,"d","Correct"
1,1,346,3,"5  1  2","2  4  6",0,1,4,1,1,0.580322546468324,"j",0.084324871888839,"d","Correct"
1,1,347,3,"6  4  5","6  1  2",0,6,6,2,1.5,0.464373885622535,"j",0.0450646840622539,"d","Correct"
1,1,348,4,"4  2  3  1","1  2  4  5",0,3,4,1,1,0.454456135606051,"j",0.0837688717815581,"d","Correct"
1,1,349,4,"6  1  3  5","6  1  2  5",0,6,6,3,2,1.49180714825388,"j",0.0951375949343856,"d","Correct"
1,1,350,2,"5  6","3  6",0,6,6,0,0.5,0.830534064967651,"j",0.11654420276318,"d","Correct"
1,1,351,4,"2  4  6  5","3  4  2  5",1,4,6,NA,NA,0.691306748156876,"k",0.110672998588143,"d","Correct"
1,1,352,4,"6  1  2  3","5  2  3  1",1,2,6,NA,NA,0.845364960342067,"k",0.0826834340036839,"d","Correct"
1,1,353,5,"6  5  4  1  2","6  1  2  3  5",1,2,4,NA,NA,0.606762736160363,"k",0.118138552691562,"d","Correct"
1,1,354,2,"4  2","3  6",0,2,6,0,0.5,0.612860324743906,"j",0.0835388652226357,"d","Correct"
1,1,355,2,"5  3","1  5",1,5,2,NA,NA,0.555547942331486,"k",0.0848799664590842,"d","Correct"
1,1,356,3,"5  6  3","3  1  4",1,3,6,NA,NA,0.544976092297475,"k",0.130277586525153,"d","Correct"
1,1,357,4,"6  3  4  1","3  4  1  2",1,4,6,NA,NA,0.55235441294144,"k",0.113724962261585,"d","Correct"
1,1,358,2,"3  6","5  1",1,3,4,NA,NA,0.552419007959543,"k",0.121754968156893,"d","Correct"
1,1,359,5,"1  3  4  5  2","1  3  4  6  2",1,3,5,NA,NA,0.620468953793079,"k",0.123164588407235,"d","Correct"
1,1,360,3,"3  4  1","6  3  2",0,3,6,2,1.5,0.661892772874126,"j",0.0745260491485169,"d","Correct"
1,1,361,3,"3  1  4","1  5  4",0,4,4,0,0.5,0.5025821405643,"j",0.0819668518893195,"d","Correct"
1,1,362,5,"1  3  2  4  5","1  3  4  5  6",0,2,4,2,1.5,1.47799739748461,"j",0.0580165888454758,"d","Correct"
1,1,363,3,"2  6  3","4  2  6",1,2,3,NA,NA,0.67874392271051,"k",0.122740796794915,"d","Correct"
1,1,364,3,"1  2  5","6  4  2",1,2,1,NA,NA,1.47744743429485,"k",0.0654905946330473,"d","Correct"
1,1,365,3,"5  3  6","2  1  5",1,3,3,NA,NA,0.582214818278317,"k",0.118209486473006,"d","Correct"
1,1,366,5,"6  5  2  3  1","3  5  2  1  4",1,6,6,NA,NA,0.71297022682802,"k",0.115641079895795,"d","Correct"
1,1,367,5,"6  4  5  3  2","2  1  5  4  6",0,6,2,4,2.5,1.40633707310326,"j",0.525695384987557,"s","Correct"
1,1,368,4,"4  2  1  6","6  1  5  4",0,4,6,3,2,0.675803340166112,"j",0.0558390726810103,"d","Correct"
1,1,369,3,"5  6  4","4  6  2",1,5,5,NA,NA,0.613198392127288,"k",0.0919051274258891,"d","Correct"
1,1,370,3,"1  6  2","6  1  5",1,1,4,NA,NA,0.623184661158575,"k",0.125938853873322,"d","Correct"
1,1,371,2,"6  1","2  4",1,6,3,NA,NA,0.500016752445845,"k",0.119332956830931,"d","Correct"
1,1,372,2,"4  2","5  4",1,2,3,NA,NA,0.486038873523285,"k",0.138044080968029,"d","Correct"
1,1,373,4,"5  4  1  6","5  4  6  2",0,6,2,0,0.5,0.696119982529126,"j",0.0754457735388314,"d","Correct"
1,1,374,5,"1  6  5  3  4","1  4  2  3  5",0,3,3,1,1,2.27941299428403,"j",0.227504558627516,"s","Correct"
1,1,375,4,"2  3  4  6","4  5  2  1",0,3,5,2,1.5,0.805576844074494,"j",0.108945836473595,"d","Correct"
1,1,376,3,"2  5  4","5  4  6",1,4,3,NA,NA,0.559672364410289,"k",0.0963579578196914,"d","Correct"
1,1,377,2,"1  3","5  3",0,1,5,1,1,0.583857765392622,"j",0.0717394080020313,"d","Correct"
1,1,378,3,"3  4  6","1  5  2",0,6,2,0,0.5,0.492453400278919,"j",0.0637875801890004,"d","Correct"
1,1,379,2,"4  2","6  2",0,2,2,0,0.5,0.488534837089446,"j",0.0525275215527472,"d","Correct"
1,1,380,2,"5  4","3  2",0,5,3,1,1,0.565910613172491,"j",0.0785783300621006,"d","Correct"
1,1,381,4,"4  2  5  3","5  2  6  4",1,3,1,NA,NA,0.718688395142635,"k",0.35326894558284,"d","Correct"
1,1,382,5,"6  3  5  1  4","3  4  5  1  2",0,4,2,0,0.5,0.706696058406123,"k",2.90991771983181,"a","Incorrect"
1,1,383,2,"5  2","3  6",0,2,6,0,0.5,0.612800559259995,"j",0.259463698354466,"d","Correct"
1,1,384,5,"2  5  4  6  3","6  4  2  5  3",0,2,6,4,2.5,0.864108985680105,"j",0.148898156899122,"d","Correct"
1,1,385,3,"6  2  5","1  3  2",1,5,5,NA,NA,0.606306345192934,"k",0.109629517387475,"d","Correct"
1,1,386,4,"6  1  4  3","6  3  2  4",0,1,3,2,1.5,1.49223244909626,"j",0.103750163374116,"d","Correct"
1,1,387,2,"4  5","2  5",0,4,2,1,1,0.511108984774637,"j",0.0897599087697927,"d","Correct"
1,1,388,2,"2  6","6  3",1,2,5,NA,NA,0.833816940737506,"k",0.103815060237594,"d","Correct"
1,1,389,4,"5  6  1  2","2  6  1  5",1,6,4,NA,NA,0.855227472563001,"k",0.148544997221506,"d","Correct"
1,1,390,3,"2  1  6","1  6  4",1,1,2,NA,NA,0.709963238190539,"k",0.144657222311707,"d","Correct"
1,1,391,4,"6  1  2  5","6  3  4  2",0,2,4,1,1,0.782019282518377,"j",0.118014795881209,"d","Correct"
1,1,392,5,"3  2  6  5  4","3  2  5  6  1",1,6,4,NA,NA,1.68073821842745,"k",1.50069560382599,"s","Correct"
1,1,393,2,"2  4","6  3",0,2,6,1,1,0.604192820354456,"j",0.115536943068037,"d","Correct"
1,1,394,3,"5  1  4","4  5  6",1,4,1,NA,NA,0.550243604715888,"k",0.111580649143889,"d","Correct"
1,1,395,5,"2  5  6  3  1","2  1  4  5  3",0,3,5,1,1,1.39432662561376,"j",0.753657843812562,"d","Correct"
1,1,396,2,"4  6","5  6",1,4,1,NA,NA,0.487076921498101,"k",0.0830815687172617,"d","Correct"
1,1,397,3,"5  4  6","5  2  3",1,6,6,NA,NA,0.52714545258641,"k",0.0971294758842305,"d","Correct"
1,1,398,3,"1  4  5","3  2  5",1,1,4,NA,NA,0.524507923303645,"k",0.0945477880882208,"d","Correct"
1,1,399,4,"3  1  6  4","6  3  4  1",1,4,5,NA,NA,0.565949853137226,"k",0.374610656548157,"d","Correct"
1,1,400,3,"2  4  6","2  3  5",1,6,4,NA,NA,0.742674577845719,"k",0.0880082971393676,"d","Correct"
2,2,1,5,"1  4  6  5  3","1  3  5  6  4",1,2,6,NA,NA,1.00754946703091,"k",0.42226880043745,"s","Correct"
2,2,2,3,"2  4  6","2  1  6",0,4,1,1,1,1.11691818991676,"j",0.775675689335912,"d","Correct"
2,2,3,3,"4  3  6","4  5  2",1,1,5,NA,NA,5.27144758310169,"k",0.708463366143405,"s","Correct"
2,2,4,4,"3  1  5  6","1  2  4  5",1,2,1,NA,NA,0.915223868563771,"k",0.317893816158175,"d","Correct"
2,2,5,5,"1  2  4  6  5","4  1  2  5  3",1,3,1,NA,NA,2.07255559926853,"k",1.07732838625088,"a","Correct"
2,2,6,2,"4  6","4  3",0,6,3,0,0.5,1.57333451276645,"j",0.638066266663373,"d","Correct"
2,2,7,2,"3  2","1  4",1,1,1,NA,NA,0.72815579129383,"k",0.842142453882843,"d","Correct"
2,2,8,5,"4  2  1  5  6","3  4  1  6  5",0,5,6,1,1,2.03150154137984,"j",0.397608897648752,"s","Correct"
2,2,9,5,"2  6  1  4  3","5  4  2  1  6",0,6,4,3,2,2.68495862744749,"j",0.385057844687253,"s","Correct"
2,2,10,4,"4  3  1  2","6  3  2  5",0,4,6,3,2,2.42906395485625,"j",1.08319023344666,"d","Correct"
2,2,11,4,"1  2  5  4","3  4  5  6",1,3,6,NA,NA,1.28322530770674,"k",1.45519173424691,"d","Correct"
2,2,12,5,"6  1  4  5  2","5  6  2  3  1",0,6,5,4,2.5,1.7486369390972,"j",0.430033484008163,"d","Correct"
2,2,13,2,"2  1","6  1",1,5,6,NA,NA,1.23212491348386,"k",0.54211066942662,"d","Correct"
2,2,14,4,"3  6  2  1","2  1  5  6",0,6,1,2,1.5,1.81951095536351,"j",4.04203264229,"s","Correct"
2,2,15,3,"2  1  3","1  6  2",1,4,1,NA,NA,1.51160823786631,"k",0.602361822966486,"s","Correct"
2,2,16,2,"1  3","1  6",0,1,1,1,1,1.42173604248092,"j",0.300459198188037,"d","Correct"
2,2,17,2,"1  6","2  6",0,6,6,0,0.5,0.915834201034158,"j",0.350524864625186,"d","Correct"
2,2,18,2,"5  2","6  3",1,1,3,NA,NA,1.00386604201049,"k",0.435223723761737,"d","Correct"
2,2,19,4,"5  1  6  3","2  3  1  6",1,2,1,NA,NA,0.781324735376984,"k",0.269326814450324,"d","Correct"
2,2,20,4,"2  6  4  5","5  1  4  6",1,1,1,NA,NA,1.29402233473957,"k",0.601415234617889,"d","Correct"
2,2,21,5,"5  4  6  1  2","4  6  2  3  5",1,3,5,NA,NA,1.12077940208837,"j",0.579491866752505,"s","Incorrect"
2,2,22,4,"1  5  2  3","5  3  4  1",0,5,3,2,1.5,1.65579850459471,"j",0.805198329035193,"d","Correct"
2,2,23,2,"5  6","4  2",0,6,2,0,0.5,0.88828865159303,"j",0.276315149851143,"d","Correct"
2,2,24,4,"3  6  1  4","4  3  2  5",1,2,4,NA,NA,0.724380604922771,"k",1.27040319656953,"d","Correct"
2,2,25,5,"2  4  1  3  5","1  6  4  3  2",0,1,4,2,1.5,1.46714543458074,"j",0.687812278512865,"d","Correct"
2,2,26,2,"5  4","4  6",0,5,4,1,1,2.87180273560807,"j",0.612605566624552,"s","Correct"
2,2,27,2,"4  2","2  5",1,1,5,NA,NA,0.831313733011484,"k",0.309354898054153,"d","Correct"
2,2,28,3,"1  2  4","3  6  2",0,2,6,1,1,1.2720392011106,"j",0.828716650605202,"d","Correct"
2,2,29,4,"6  3  2  4","1  2  5  4",0,2,5,1,1,1.80676007969305,"j",0.310202782973647,"d","Correct"
2,2,30,3,"4  3  2","5  6  1",1,6,6,NA,NA,0.760904559399933,"k",2.089554653503,"d","Correct"
2,2,31,2,"3  1","3  5",0,1,5,0,0.5,0.889649373013526,"j",0.26969808479771,"d","Correct"
2,2,32,4,"5  6  3  4","5  6  4  1",1,1,6,NA,NA,1.47039239061996,"k",2.01900482038036,"s","Correct"
2,2,33,2,"3  4","6  3",0,4,3,0,0.5,0.869822022970766,"j",0.202535565476865,"d","Correct"
2,2,34,2,"1  4","5  6",1,5,5,NA,NA,1.79784234520048,"k",0.485252866987139,"d","Correct"
2,2,35,5,"4  6  3  1  2","3  4  2  1  6",0,1,1,1,1,0.849334837403148,"j",0.750660816207528,"d","Correct"
2,2,36,3,"6  1  5","6  2  5",0,5,5,0,0.5,1.39200090290979,"j",0.655709459912032,"d","Correct"
2,2,37,3,"4  1  5","6  4  3",1,6,4,NA,NA,0.964839482679963,"k",0.909476420842111,"d","Correct"
2,2,38,3,"4  1  3","5  4  6",0,3,6,0,0.5,1.06423793453723,"j",0.957228740677238,"d","Correct"
2,2,39,3,"2  4  6","2  3  4",1,3,3,NA,NA,0.798350050114095,"k",1.34963743807748,"d","Correct"
2,2,40,5,"3  1  5  6  2","6  4  5  3  2",1,4,2,NA,NA,0.719112488441169,"k",1.00973090715706,"s","Correct"
2,2,41,5,"6  4  1  3  5","5  4  1  3  2",0,1,1,2,1.5,1.48848654190078,"j",1.34882456669584,"d","Correct"
2,2,42,4,"1  2  5  6","5  2  6  1",0,6,1,0,0.5,1.87393648410216,"j",0.573961144313216,"d","Correct"
2,2,43,3,"6  4  1","4  1  2",0,1,2,0,0.5,3.10261250613257,"k",2.77795613510534,"a","Incorrect"
2,2,44,4,"3  2  5  4","6  1  5  2",1,6,5,NA,NA,2.91808748012409,"j",0.424945569597185,"s","Incorrect"
2,2,45,5,"1  6  3  4  5","5  6  1  3  2",0,4,3,1,1,1.95092287892476,"j",1.68826987640932,"d","Correct"
2,2,46,4,"2  4  5  1","3  5  2  6",0,4,5,2,1.5,1.03237930918112,"j",1.18249058444053,"d","Correct"
2,2,47,5,"4  1  3  2  5","3  4  5  6  1",0,1,4,3,2,2.55045942449942,"j",0.447912418749183,"s","Correct"
2,2,48,2,"3  5","4  5",0,3,4,1,1,0.905325738713145,"j",1.06861047353596,"d","Correct"
2,2,49,5,"5  3  1  6  4","6  5  3  2  4",0,1,3,2,1.5,1.86536345724016,"j",0.350096545182168,"s","Correct"
2,2,50,3,"1  6  5","5  2  1",0,5,1,0,0.5,1.11945882625878,"j",0.642142091877759,"d","Correct"
2,2,51,4,"4  5  1  2","6  1  4  2",0,2,2,0,0.5,1.2115227249451,"j",0.258240920491517,"d","Correct"
2,2,52,4,"4  1  6  5","3  4  2  5",1,3,4,NA,NA,0.978950475808233,"k",0.586946554016322,"s","Correct"
2,2,53,2,"2  3","6  3",1,4,6,NA,NA,1.8629674045369,"k",1.07569811679423,"s","Correct"
2,2,54,3,"3  5  4","5  3  4",0,3,5,2,1.5,1.78381013404578,"j",1.04779669130221,"s","Correct"
2,2,55,5,"3  6  4  1  5","1  6  4  2  3",0,1,2,1,1,1.22124729352072,"j",0.451942665036768,"d","Correct"
2,2,56,2,"4  2","4  6",0,2,6,0,0.5,1.17327553173527,"j",0.654004332609475,"d","Correct"
2,2,57,5,"2  5  4  1  3","5  6  2  1  4",1,6,6,NA,NA,3.61929266015068,"k",0.594094264321029,"a","Correct"
2,2,58,5,"5  2  3  1  4","1  4  6  5  3",1,6,1,NA,NA,3.16939892526716,"k",0.442241640295833,"a","Correct"
2,2,59,5,"2  5  3  1  4","3  6  1  5  4",1,6,3,NA,NA,1.56762449396774,"k",0.464343701023608,"s","Correct"
2,2,60,5,"2  5  1  3  6","6  1  2  5  4",0,2,6,4,2.5,0.981068226508796,"j",0.349090493284166,"d","Correct"
2,2,61,5,"6  2  1  5  3","1  6  5  3  2",1,4,1,NA,NA,0.726509221829474,"k",1.60845156386495,"d","Correct"
2,2,62,4,"4  6  2  3","6  1  5  4",1,5,6,NA,NA,2.72320068906993,"k",0.502019197680056,"d","Correct"
2,2,63,5,"3  6  4  2  1","4  3  6  5  2",0,6,3,3,2,1.46535790339112,"j",0.366136031690985,"d","Correct"
2,2,64,3,"3  1  2","4  6  1",0,3,4,2,1.5,1.67079601855949,"j",1.14744537277147,"s","Correct"
2,2,65,4,"4  5  1  6","6  2  4  5",0,5,2,2,1.5,1.7768773380667,"j",0.864877786953002,"d","Correct"
2,2,66,3,"4  2  1","3  1  5",0,2,1,1,1,1.07765649305657,"j",0.297681612428278,"d","Correct"
2,2,67,5,"5  4  6  2  3","6  1  4  3  5",1,1,4,NA,NA,1.25306154740974,"k",0.394444647245109,"a","Correct"
2,2,68,5,"2  6  4  1  5","1  5  3  4  2",1,3,3,NA,NA,1.62581464461982,"k",0.247861648444086,"a","Correct"
2,2,69,3,"6  3  4","6  3  2",0,6,6,2,1.5,1.99717864627019,"j",0.780580081511289,"d","Correct"
2,2,70,3,"3  1  5","4  5  1",0,3,4,2,1.5,0.852751128841192,"j",0.434018151368946,"d","Correct"
2,2,71,5,"1  5  6  4  2","3  4  6  1  5",1,3,6,NA,NA,1.58409079071134,"k",1.2081037168391,"s","Correct"
2,2,72,3,"5  6  2","1  5  6",1,4,5,NA,NA,1.44680283358321,"k",0.460143515840173,"d","Correct"
2,2,73,2,"3  5","1  3",1,2,1,NA,NA,0.94090250087902,"k",0.942267750389874,"d","Correct"
2,2,74,4,"2  1  6  3","2  6  5  4",1,5,2,NA,NA,4.83547588530928,"k",0.441766233183444,"d","Correct"
2,2,75,2,"5  6","5  2",1,1,2,NA,NA,0.939113460481167,"k",0.701142094098032,"d","Correct"
2,2,76,3,"6  4  5","5  1  4",1,1,1,NA,NA,2.1125205969438,"k",0.635288680903614,"s","Correct"
2,2,77,3,"4  5  3","5  2  6",0,3,6,0,0.5,4.06509245978668,"j",3.35788386734203,"s","Correct"
2,2,78,4,"1  6  5  2","1  2  4  6",1,4,2,NA,NA,1.45079715969041,"k",0.528151806909591,"a","Correct"
2,2,79,5,"5  4  3  6  1","4  2  1  6  5",0,4,2,3,2,1.21024863375351,"j",0.800926304422319,"d","Correct"
2,2,80,5,"3  2  6  4  5","3  5  1  2  4",0,4,2,1,1,1.18435629410669,"j",0.432403577491641,"d","Correct"
2,2,81,2,"6  3","2  3",1,1,3,NA,NA,0.930461349897087,"k",0.636433582287282,"d","Correct"
2,2,82,5,"3  1  5  2  6","1  4  6  5  3",1,4,4,NA,NA,0.754533800762147,"k",0.451873240526766,"d","Correct"
2,2,83,2,"2  6","1  3",1,3,3,NA,NA,1.06925793318078,"k",1.00188412191346,"d","Correct"
2,2,84,3,"5  2  6","5  2  6",1,1,2,NA,NA,1.43332632025704,"k",0.56731872446835,"d","Correct"
2,2,85,4,"3  1  4  5","3  6  5  2",1,2,5,NA,NA,4.98785794759169,"k",2.35605437960476,"s","Correct"
2,2,86,2,"2  3","1  5",0,2,1,1,1,1.24958367925137,"j",2.16684530908242,"s","Correct"
2,2,87,3,"4  6  2","5  1  6",1,3,5,NA,NA,1.15161959920079,"k",0.337075216230005,"a","Correct"
2,2,88,3,"5  4  6","6  5  4",0,6,4,0,0.5,0.883048003539443,"j",0.359099702443928,"d","Correct"
2,2,89,3,"3  5  1","2  5  6",1,6,5,NA,NA,2.10379725135863,"j",1.47514585964382,"d","Incorrect"
2,2,90,2,"1  5","3  2",0,5,2,0,0.5,0.915258279070258,"j",0.525907280854881,"d","Correct"
2,2,91,5,"4  5  6  1  2","5  1  6  4  2",0,4,5,4,2.5,2.22393281618133,"j",0.702069063205272,"d","Correct"
2,2,92,5,"3  5  1  4  6","5  4  3  2  6",1,2,4,NA,NA,1.36146557005122,"k",0.698129068594426,"d","Correct"
2,2,93,2,"1  3","6  1",0,3,1,0,0.5,0.937533901073039,"j",0.235573804937303,"d","Correct"
2,2,94,2,"1  4","2  6",0,1,2,1,1,0.797558006364852,"j",0.228930780198425,"d","Correct"
2,2,95,2,"6  5","1  3",1,1,1,NA,NA,1.35096012661234,"k",0.256365853827447,"d","Correct"
2,2,96,5,"3  1  2  6  4","1  4  6  5  2",0,1,4,3,2,1.70969700999558,"k",0.184446244034916,"a","Incorrect"
2,2,97,3,"5  6  2","1  2  6",0,6,2,1,1,4.85628031101078,"k",0.74987662024796,"s","Incorrect"
2,2,98,5,"4  1  6  2  3","3  4  1  6  5",1,5,5,NA,NA,3.19116955948994,"k",0.598675379529595,"s","Correct"
2,2,99,2,"2  5","4  1",0,2,4,1,1,0.986070718616247,"j",1.15405338257551,"d","Correct"
2,2,100,4,"5  4  1  3","4  6  2  5",1,2,4,NA,NA,3.42337717860937,"k",0.486250467598438,"d","Correct"
2,2,101,4,"6  4  3  5","5  6  3  1",1,2,6,NA,NA,0.926218604668975,"j",0.240315803326666,"d","Incorrect"
2,2,102,2,"4  1","3  1",1,5,3,NA,NA,1.20232397178188,"k",0.409693297464401,"d","Correct"
2,2,103,3,"6  1  3","1  3  5",1,2,5,NA,NA,0.784453669562936,"k",0.440430263057351,"d","Correct"
2,2,104,2,"2  1","3  2",1,3,3,NA,NA,2.45040385471657,"k",0.487851759884506,"d","Correct"
2,2,105,2,"1  5","6  3",1,6,6,NA,NA,0.863894977141172,"j",0.940533644985408,"a","Incorrect"
2,2,106,3,"1  2  6","4  5  3",1,4,3,NA,NA,0.862620885949582,"k",0.819315358996391,"d","Correct"
2,2,107,2,"1  5","2  4",1,4,2,NA,NA,2.15001377929002,"k",0.279420238453895,"d","Correct"
2,2,108,4,"6  5  3  4","1  5  6  3",0,4,3,0,0.5,1.15147290192544,"j",0.328829993959516,"d","Correct"
2,2,109,5,"1  5  3  4  2","6  5  4  2  3",0,3,4,2,1.5,1.69088989915326,"j",0.406574323773384,"s","Correct"
2,2,110,2,"5  6","3  2",1,4,2,NA,NA,1.04159164521843,"k",1.44693866418675,"d","Correct"
2,2,111,3,"5  2  4","6  4  3",1,6,3,NA,NA,1.57238249061629,"k",0.573058625683188,"d","Correct"
2,2,112,3,"4  2  5","4  5  3",0,5,3,0,0.5,0.901784180663526,"j",0.481160742230713,"d","Correct"
2,2,113,5,"1  6  2  5  3","3  6  1  2  5",0,1,3,4,2.5,1.75723230279982,"j",0.478566075209528,"d","Correct"
2,2,114,3,"3  5  6","5  6  1",0,5,6,1,1,1.16263154055923,"j",0.227362087462097,"d","Correct"
2,2,115,3,"6  3  2","4  5  3",0,2,3,0,0.5,0.921424688305706,"j",0.228070217650384,"d","Correct"
2,2,116,3,"5  4  3","6  4  1",1,1,1,NA,NA,0.826104778330773,"k",0.384130875580013,"d","Correct"
2,2,117,2,"5  3","1  6",0,5,1,1,1,0.916212413925678,"j",0.294864484574646,"d","Correct"
2,2,118,2,"3  1","3  6",1,6,3,NA,NA,1.57423310773447,"k",0.2862703287974,"d","Correct"
2,2,119,4,"3  6  1  4","2  4  3  1",1,5,4,NA,NA,1.40628817398101,"k",0.453644170425832,"s","Correct"
2,2,120,5,"4  6  3  1  2","3  2  1  5  6",1,5,2,NA,NA,3.6989226215519,"k",0.982429551426321,"s","Correct"
2,2,121,4,"5  2  4  3","2  6  5  4",1,6,4,NA,NA,1.34656766522676,"k",0.363928934559226,"d","Correct"
2,2,122,5,"4  1  2  6  3","5  4  3  1  2",1,5,1,NA,NA,1.06862616958097,"k",0.497306779958308,"s","Correct"
2,2,123,3,"6  2  4","1  2  5",0,6,1,2,1.5,1.04472480574623,"j",1.09800452692434,"d","Correct"
2,2,124,3,"1  6  4","2  3  4",0,4,4,0,0.5,0.885508047416806,"j",0.585505541879684,"d","Correct"
2,2,125,2,"1  2","6  3",0,2,3,0,0.5,3.74132774118334,"j",1.43089283909649,"d","Correct"
2,2,126,2,"5  3","5  3",1,1,5,NA,NA,0.84902936918661,"k",0.222330618649721,"d","Correct"
2,2,127,3,"1  5  3","2  5  4",0,3,4,0,0.5,1.02904270496219,"j",0.21908909548074,"d","Correct"
2,2,128,5,"2  6  3  4  5","5  4  3  2  1",1,1,1,NA,NA,1.78575824759901,"k",0.465833612252027,"s","Correct"
2,2,129,5,"2  6  4  3  1","5  2  3  6  4",0,3,6,1,1,2.71846925513819,"j",1.39322971785441,"d","Correct"
2,2,130,2,"1  5","5  1",1,3,1,NA,NA,1.74067032104358,"k",1.67798598762602,"d","Correct"
2,2,131,5,"1  6  4  5  3","2  5  4  6  1",1,2,5,NA,NA,1.25814704690129,"k",0.262832298409194,"d","Correct"
2,2,132,4,"4  1  3  5","2  4  5  6",0,3,5,1,1,-1.30422080168501,"k",1.78283305931836,"a","Incorrect"
2,2,133,5,"6  4  2  1  3","3  5  1  2  6",0,4,5,3,2,1.45495448308066,"k",0.364324956201017,"a","Incorrect"
2,2,134,4,"3  4  6  1","2  6  4  5",1,5,4,NA,NA,2.69691323349252,"k",0.468434618320316,"s","Correct"
2,2,135,3,"2  6  5","6  1  4",0,5,4,0,0.5,0.865207704715431,"j",0.293880467303097,"d","Correct"
2,2,136,3,"5  2  6","4  2  1",0,6,1,0,0.5,3.38506116485223,"j",0.833244037348777,"d","Correct"
2,2,137,4,"1  4  5  3","3  5  2  6",1,2,5,NA,NA,2.66726895002648,"k",0.776016775052994,"a","Correct"
2,2,138,2,"1  5","4  3",1,6,4,NA,NA,0.700136042200029,"k",0.351450928021222,"d","Correct"
2,2,139,3,"3  1  2","1  3  6",0,1,3,1,1,0.912837776821107,"j",0.235548751428723,"d","Correct"
2,2,140,2,"3  6","2  4",0,6,4,0,0.5,1.08561616856605,"j",0.937604231294245,"d","Correct"
2,2,141,3,"6  1  4","6  2  4",0,6,6,2,1.5,1.77158567821607,"j",0.604397471994162,"d","Correct"
2,2,142,2,"4  3","2  4",0,4,2,1,1,0.767745594494045,"j",0.304397381376475,"d","Correct"
2,2,143,5,"2  6  4  1  5","3  4  6  5  2",1,3,3,NA,NA,2.19577059568837,"k",0.62717687478289,"d","Correct"
2,2,144,4,"4  1  6  3","2  1  6  5",0,1,1,2,1.5,1.9891942194663,"j",0.941255962476134,"d","Correct"
2,2,145,3,"4  2  1","6  2  3",0,4,6,2,1.5,0.950623145792633,"j",0.30403788248077,"d","Correct"
2,2,146,4,"3  6  4  1","3  2  1  5",1,5,3,NA,NA,1.23941992456093,"k",0.341441416647285,"d","Correct"
2,2,147,4,"3  5  1  6","1  4  2  5",0,3,1,3,2,1.17085050232708,"j",1.0035086562857,"d","Correct"
2,2,148,2,"6  3","6  1",0,6,6,1,1,0.902926064096391,"j",0.930248549208045,"d","Correct"
2,2,149,2,"5  6","3  4",1,2,4,NA,NA,0.840309645514935,"k",0.454359544906765,"d","Correct"
2,2,150,5,"2  6  5  3  4","3  2  5  1  6",1,1,5,NA,NA,1.22770468238741,"k",0.369793800171465,"d","Correct"
2,2,151,2,"4  3","3  5",1,5,5,NA,NA,0.750435336958617,"k",0.279821391683072,"d","Correct"
2,2,152,2,"5  6","6  3",1,4,3,NA,NA,1.00784467253834,"k",0.982514671981335,"d","Correct"
2,2,153,5,"1  4  2  3  5","5  1  2  6  4",0,2,2,2,1.5,2.04652773123235,"j",0.796001991257072,"d","Correct"
2,2,154,4,"5  6  2  1","5  6  2  3",0,6,6,2,1.5,3.07122536422685,"k",0.428115253336728,"s","Incorrect"
2,2,155,5,"2  5  1  4  3","2  5  4  6  1",0,4,6,1,1,2.28211119445041,"k",1.5101931844838,"a","Incorrect"
2,2,156,4,"2  1  5  3","3  6  2  4",0,2,3,3,2,2.01293832156807,"j",1.17165311006829,"s","Correct"
2,2,157,5,"4  6  1  5  3","4  1  5  2  3",1,2,4,NA,NA,2.23636916838586,"k",0.690436224453151,"s","Correct"
2,2,158,5,"5  1  3  6  2","1  3  2  5  6",1,4,1,NA,NA,0.662560455966741,"k",0.251235983334482,"d","Correct"
2,2,159,5,"2  4  5  1  3","1  4  5  3  2",1,6,2,NA,NA,1.40053891576827,"k",0.719946186989546,"d","Correct"
2,2,160,2,"2  3","2  5",0,3,5,0,0.5,0.950677478220314,"j",0.296036853920668,"d","Correct"
2,2,161,5,"5  6  4  2  1","5  3  1  4  2",0,4,1,2,1.5,1.48345507262275,"j",0.743444888852537,"d","Correct"
2,2,162,2,"4  5","6  5",1,2,5,NA,NA,1.7167626186274,"k",0.471540913917124,"d","Correct"
2,2,163,5,"4  2  3  5  1","5  3  1  6  4",1,6,3,NA,NA,0.884306398686022,"k",0.608293396420777,"s","Correct"
2,2,164,2,"2  6","6  3",0,6,3,0,0.5,3.3628296116367,"j",0.611718743573874,"d","Correct"
2,2,165,5,"1  4  2  5  6","5  1  4  2  3",0,2,4,2,1.5,1.41043100878596,"j",0.249165019020438,"d","Correct"
2,2,166,5,"1  4  3  6  2","6  2  5  3  4",1,5,5,NA,NA,1.09453239385039,"k",0.985879649873823,"d","Correct"
2,2,167,4,"2  4  6  3","5  2  4  1",0,4,2,2,1.5,1.09398726047948,"j",0.305352119728923,"d","Correct"
2,2,168,5,"3  6  5  1  2","6  2  1  3  5",0,1,3,1,1,5.65246371133253,"j",0.482159852515906,"s","Correct"
2,2,169,4,"2  6  3  1","5  1  6  4",0,6,1,2,1.5,2.8581088935025,"j",0.294937229715288,"d","Correct"
2,2,170,3,"1  2  6","6  4  2",1,3,6,NA,NA,0.77037286106497,"k",0.371006918605417,"d","Correct"
2,2,171,2,"2  1","4  1",0,1,1,0,0.5,0.847696719691157,"j",0.269097109790891,"d","Correct"
2,2,172,4,"4  3  5  6","1  3  5  2",1,1,2,NA,NA,0.701807060744613,"k",0.241124448366463,"d","Correct"
2,2,173,2,"1  4","1  3",0,1,1,1,1,0.746549071278423,"j",0.267857730388641,"d","Correct"
2,2,174,3,"5  4  2","2  6  3",1,3,2,NA,NA,0.680609934031963,"k",0.276598583441228,"d","Correct"
2,2,175,3,"3  2  6","6  1  3",0,2,1,1,1,2.04860865650699,"k",0.614008848089725,"d","Incorrect"
2,2,176,5,"5  2  1  4  3","4  3  2  1  6",0,2,3,3,2,1.18874060548842,"k",0.172777184285223,"a","Incorrect"
2,2,177,4,"1  2  6  3","5  1  3  6",0,6,3,1,1,5.26528811641037,"j",0.598309240303934,"d","Correct"
2,2,178,2,"1  3","5  3",1,6,5,NA,NA,0.777660024352372,"k",0.689654142130166,"d","Correct"
2,2,179,3,"5  4  2","2  4  6",0,5,2,2,1.5,1.22173779318109,"j",0.58039468806237,"d","Correct"
2,2,180,2,"4  3","3  5",1,2,3,NA,NA,1.15240379516035,"k",2.71368318656459,"d","Correct"
2,2,181,2,"6  5","1  2",1,1,2,NA,NA,0.968480347655714,"k",0.681202759034932,"d","Correct"
2,2,182,5,"5  1  6  2  4","6  5  4  2  3",1,3,5,NA,NA,1.59726877743378,"k",0.900629922281951,"d","Correct"
2,2,183,4,"4  2  6  3","4  1  6  2",1,5,2,NA,NA,0.812073774635792,"k",0.258773074951023,"d","Correct"
2,2,184,4,"6  1  4  2","2  1  5  6",1,3,6,NA,NA,2.71534937620163,"k",0.654195401351899,"d","Correct"
2,2,185,3,"1  4  3","1  3  6",0,3,6,0,0.5,1.19562510633841,"j",0.266930761747062,"d","Correct"
2,2,186,3,"5  6  1","3  6  1",1,4,3,NA,NA,6.09540533227846,"k",0.451076065655798,"d","Correct"
2,2,187,4,"4  3  5  1","3  5  6  2",0,4,3,3,2,1.02843871107325,"j",0.178512557875365,"d","Correct"
2,2,188,3,"4  5  2","6  2  4",0,2,4,0,0.5,0.46660060249269,"j",0.255233026575297,"d","Correct"
2,2,189,5,"4  1  5  3  6","1  4  2  5  3",1,2,2,NA,NA,0.860595500096679,"k",0.297323924954981,"d","Correct"
2,2,190,2,"4  3","6  4",1,2,6,NA,NA,0.816618366166949,"k",0.231363356579095,"d","Correct"
2,2,191,4,"3  6  5  4","4  1  3  5",0,5,3,1,1,0.809459487907588,"k",0.21613885415718,"d","Incorrect"
2,2,192,3,"5  2  6","3  5  2",1,3,3,NA,NA,1.0627815281041,"k",0.251527868211269,"d","Correct"
2,2,193,3,"2  3  4","2  5  3",1,6,2,NA,NA,1.20889364741743,"k",0.47160913143307,"s","Correct"
2,2,194,4,"1  5  4  3","3  2  5  1",0,4,5,1,1,1.34431619709358,"j",0.1696672658436,"d","Correct"
2,2,195,4,"1  3  5  4","6  3  1  4",0,5,1,1,1,1.14237104170024,"j",0.263761078473181,"d","Correct"
2,2,196,5,"1  3  6  5  2","1  3  5  2  4",1,4,3,NA,NA,0.956450884230435,"k",0.24582388671115,"d","Correct"
2,2,197,2,"1  3","4  6",0,3,6,0,0.5,0.911190000362694,"j",0.249895787797868,"d","Correct"
2,2,198,3,"6  5  1","2  3  4",1,2,2,NA,NA,0.943280744832009,"k",0.416604360565543,"d","Correct"
2,2,199,2,"2  4","2  5",0,4,5,0,0.5,0.80336099350825,"j",0.266678720247,"d","Correct"
2,2,200,3,"3  5  4","5  6  4",1,6,4,NA,NA,0.783401434775442,"k",0.239369516260922,"d","Correct"
2,2,201,3,"1  5  3","3  5  2",1,4,3,NA,NA,1.22210181923583,"k",1.39681836310774,"d","Correct"
2,2,202,5,"6  4  2  3  5","1  4  2  6  5",1,1,5,NA,NA,0.740267960354686,"k",1.14221438346431,"s","Correct"
2,2,203,5,"4  5  2  6  1","2  5  3  4  6",0,4,2,4,2.5,1.27162718214095,"j",0.252379979472607,"d","Correct"
2,2,204,2,"4  2","2  3",0,4,2,1,1,0.79777443036437,"j",0.325090123806149,"d","Correct"
2,2,205,5,"6  2  3  1  5","1  6  5  4  2",1,4,6,NA,NA,0.999081482645124,"k",0.206513290759176,"d","Correct"
2,2,206,4,"3  1  6  4","3  1  5  6",1,5,6,NA,NA,0.825920652598143,"k",0.167888790369034,"d","Correct"
2,2,207,5,"3  2  5  4  6","3  2  6  5  4",0,6,4,0,0.5,1.72856479231268,"j",0.274725327733904,"d","Correct"
2,2,208,5,"2  5  4  3  6","4  5  6  1  2",1,1,4,NA,NA,0.767018146347255,"k",0.151404081378132,"d","Correct"
2,2,209,4,"6  3  2  4","3  1  2  4",0,3,1,2,1.5,1.24478523479775,"j",0.17018130980432,"d","Correct"
2,2,210,5,"1  2  4  6  3","1  2  5  4  6",1,5,4,NA,NA,0.914871916174889,"k",0.173601223621517,"d","Correct"
2,2,211,5,"2  5  6  4  3","2  1  6  3  4",0,4,3,1,1,0.910272388719022,"j",0.2410366111435,"d","Correct"
2,2,212,3,"4  1  6","2  4  5",1,5,5,NA,NA,0.678331601433456,"k",0.9383564312011,"d","Correct"
2,2,213,4,"5  4  6  1","6  2  3  4",0,1,4,0,0.5,1.04844626365229,"j",0.325834173709154,"d","Correct"
2,2,214,4,"2  1  5  6","1  6  4  5",1,3,4,NA,NA,0.883869929704815,"k",0.215908847749233,"d","Correct"
2,2,215,5,"5  4  6  3  1","2  4  1  6  5",1,2,2,NA,NA,0.822613629046828,"k",0.1813327036798,"d","Correct"
2,2,216,3,"1  2  4","1  5  3",0,2,5,1,1,1.54928343277425,"j",0.270714399870485,"d","Correct"
2,2,217,4,"6  4  1  5","6  4  5  2",0,1,5,1,1,1.80740331346169,"j",0.286132988985628,"d","Correct"
2,2,218,5,"1  6  2  4  3","3  6  5  4  2",0,3,2,0,0.5,0.954208470880985,"j",0.139559045433998,"d","Correct"
2,2,219,3,"4  6  2","4  2  1",0,2,1,0,0.5,1.62950591742992,"j",0.635615278035402,"d","Correct"
2,2,220,2,"3  1","6  1",0,3,6,1,1,0.717680833302438,"j",0.280374373309314,"d","Correct"
2,2,221,2,"1  3","2  4",0,1,2,1,1,0.952394376974553,"j",0.22575204167515,"d","Correct"
2,2,222,4,"6  2  1  5","1  5  6  4",0,1,6,1,1,0.723795325495303,"j",0.198812296614051,"d","Correct"
2,2,223,4,"5  1  6  3","4  6  5  2",0,3,2,0,0.5,0.777858035173267,"j",0.145917126908898,"d","Correct"
2,2,224,2,"4  2","4  6",1,1,6,NA,NA,1.30320358090103,"k",1.60289337392896,"d","Correct"
2,2,225,4,"2  1  4  6","6  1  3  4",1,5,1,NA,NA,0.878031325060874,"k",0.266065068077296,"d","Correct"
2,2,226,2,"4  1","1  6",0,4,1,1,1,0.690760708879679,"j",0.11012424249202,"d","Correct"
2,2,227,4,"3  5  1  6","2  1  4  3",1,2,2,NA,NA,0.620815774891526,"k",0.227514821570367,"d","Correct"
2,2,228,5,"2  3  5  1  6","2  4  3  1  5",0,3,4,3,2,1.1055428260006,"j",0.132935943547636,"d","Correct"
2,2,229,2,"5  2","6  2",0,2,2,0,0.5,1.12298197159544,"j",0.149635566398501,"d","Correct"
2,2,230,5,"1  4  2  3  5","4  6  5  1  3",1,6,5,NA,NA,1.03904738649726,"k",0.413076386321336,"s","Correct"
2,2,231,4,"3  2  4  6","3  2  5  4",0,2,2,2,1.5,0.967779763508588,"j",0.272496799938381,"d","Correct"
2,2,232,2,"2  4","5  4",1,1,4,NA,NA,0.617189398501068,"k",0.263841973152012,"d","Correct"
2,2,233,5,"2  5  1  6  3","5  4  3  2  1",0,6,2,1,1,1.25254629645497,"j",0.705931482370943,"s","Correct"
2,2,234,4,"2  5  6  1","5  6  2  3",1,3,5,NA,NA,0.881362495943904,"k",0.453419295139611,"d","Correct"
2,2,235,3,"1  4  5","2  4  1",0,4,4,1,1,1.18674117838964,"j",0.27481195749715,"d","Correct"
2,2,236,3,"5  6  4","1  2  5",1,1,1,NA,NA,0.662883129436523,"k",0.387514265719801,"d","Correct"
2,2,237,4,"3  6  2  1","5  6  3  4",0,3,5,3,2,2.66350644128397,"j",0.292608790565282,"d","Correct"
2,2,238,5,"5  4  1  2  6","2  6  4  1  5",1,3,1,NA,NA,0.655682595912367,"k",0.341042074374855,"d","Correct"
2,2,239,2,"4  5","2  5",1,6,5,NA,NA,0.81844121357426,"k",0.329060906078666,"d","Correct"
2,2,240,5,"3  5  4  1  6","5  1  3  2  4",1,2,4,NA,NA,0.771211992483586,"k",0.203852519392967,"d","Correct"
2,2,241,5,"4  5  2  1  6","6  2  1  4  5",0,2,1,2,1.5,1.01124436268583,"j",0.289908778853714,"d","Correct"
2,2,242,2,"3  4","5  2",1,1,2,NA,NA,0.513980444520712,"k",0.212646496947855,"d","Correct"
2,2,243,3,"5  6  4","4  1  6",1,3,1,NA,NA,1.19536250038072,"k",0.514704572502524,"s","Correct"
2,2,244,2,"5  6","1  5",0,5,1,1,1,0.833425446879119,"j",0.455460377037525,"d","Correct"
2,2,245,2,"3  5","5  2",0,3,5,1,1,1.40875968849286,"j",0.351522465236485,"d","Correct"
2,2,246,3,"4  6  1","5  1  2",1,5,1,NA,NA,0.816919306758791,"k",0.263617701362818,"d","Correct"
2,2,247,2,"4  5","6  2",1,6,2,NA,NA,0.776316809933633,"k",0.224336082581431,"d","Correct"
2,2,248,4,"6  5  3  4","3  2  4  6",1,1,2,NA,NA,0.682365771383047,"k",0.198394240345806,"d","Correct"
2,2,249,5,"2  5  4  3  6","3  2  6  4  1",1,1,2,NA,NA,1.50175085710362,"k",0.361124786548316,"d","Correct"
2,2,250,3,"4  6  1","1  5  2",0,6,5,1,1,1.06585703557357,"j",0.198565386701375,"d","Correct"
2,2,251,4,"1  2  6  3","6  2  4  5",0,2,2,2,1.5,1.16997877135873,"j",0.218633912038058,"d","Correct"
2,2,252,4,"5  3  6  4","1  2  5  3",1,1,3,NA,NA,0.557354792021215,"k",0.230056665837765,"d","Correct"
2,2,253,2,"1  6","1  5",0,6,5,0,0.5,1.32802285812795,"j",0.354156673885882,"d","Correct"
2,2,254,2,"2  6","1  4",1,3,4,NA,NA,0.647524003405124,"k",0.332850882783532,"d","Correct"
2,2,255,4,"6  1  3  2","4  3  5  2",1,5,5,NA,NA,0.994872845709324,"k",0.282261211890727,"d","Correct"
2,2,256,4,"4  2  1  5","5  1  2  6",1,6,6,NA,NA,1.3462579715997,"k",0.739607521798462,"d","Correct"
2,2,257,3,"6  2  5","1  4  3",0,2,4,1,1,0.773738744668663,"j",0.150723720900714,"d","Correct"
2,2,258,5,"6  4  3  5  1","1  5  2  6  3",1,2,3,NA,NA,0.735804263968021,"k",0.15380677441135,"d","Correct"
2,2,259,3,"4  3  6","4  2  5",1,5,4,NA,NA,0.555224363226444,"k",0.196539699099958,"d","Correct"
2,2,260,3,"4  5  1","3  5  1",1,3,5,NA,NA,1.17194197652861,"j",0.980574104934931,"a","Incorrect"
2,2,261,4,"4  6  1  5","3  6  1  4",0,6,6,2,1.5,1.5526568624191,"j",0.338006410747766,"s","Correct"
2,2,262,4,"1  5  3  4","5  1  2  3",1,6,3,NA,NA,0.904134654905647,"k",0.315442223567516,"s","Correct"
2,2,263,3,"4  5  6","6  5  3",0,4,6,2,1.5,1.06213980354369,"j",0.274906737264246,"d","Correct"
2,2,264,3,"2  5  1","6  5  4",0,5,5,1,1,0.966908334288746,"j",0.295575030148029,"d","Correct"
2,2,265,2,"2  4","2  6",1,1,6,NA,NA,0.68694869754836,"k",0.307009857147932,"d","Correct"
2,2,266,4,"2  3  6  1","1  4  6  5",1,5,5,NA,NA,3.5062767341733,"j",0.245711298193783,"a","Incorrect"
2,2,267,4,"3  1  5  6","4  1  3  5",1,2,3,NA,NA,1.02313346834853,"k",1.22178035369143,"s","Correct"
2,2,268,3,"1  2  6","5  2  6",0,1,5,2,1.5,0.884580173064023,"j",0.480566105805337,"d","Correct"
2,2,269,4,"6  4  1  3","2  6  4  3",1,2,3,NA,NA,1.76058369781822,"k",0.313363713212311,"d","Correct"
2,2,270,2,"4  1","3  1",0,4,3,1,1,0.568047682289034,"j",0.240734161809087,"d","Correct"
2,2,271,3,"5  3  1","1  2  6",0,3,2,1,1,0.870116925798357,"j",0.274810146540403,"d","Correct"
2,2,272,3,"6  2  3","3  4  1",0,2,4,1,1,0.718883387278765,"j",0.249514556489885,"d","Correct"
2,2,273,4,"5  4  3  6","5  1  3  6",0,4,1,2,1.5,0.682922978885472,"j",0.190960983745754,"d","Correct"
2,2,274,5,"2  5  1  3  6","6  5  1  4  3",0,1,1,2,1.5,1.11831634026021,"j",0.297024493571371,"d","Correct"
2,2,275,2,"4  5","3  4",1,6,4,NA,NA,0.760363047942519,"k",0.249055750668049,"d","Correct"
2,2,276,4,"5  6  4  1","2  1  4  3",0,6,1,2,1.5,1.32245410373434,"j",0.509145779069513,"d","Correct"
2,2,277,4,"1  5  2  3","2  5  1  4",1,6,5,NA,NA,0.939894335810095,"k",1.3898671544157,"d","Correct"
2,2,278,2,"3  6","1  2",1,1,1,NA,NA,0.794001658447087,"k",0.233307545538992,"d","Correct"
2,2,279,3,"4  6  5","4  6  2",0,5,2,0,0.5,0.879328054841608,"j",0.187384412158281,"d","Correct"
2,2,280,2,"3  6","3  2",1,1,3,NA,NA,0.839430066756904,"k",0.589428029488772,"d","Correct"
2,2,281,2,"3  6","2  1",1,1,1,NA,NA,0.753523824270815,"k",0.562822126317769,"d","Correct"
2,2,282,4,"6  2  3  5","6  4  3  5",0,3,3,1,1,1.06351923896,"j",0.412249328102916,"d","Correct"
2,2,283,4,"2  1  6  3","3  4  5  1",1,5,5,NA,NA,0.950937669258565,"k",0.424327992834151,"d","Correct"
2,2,284,2,"5  1","4  2",0,1,2,0,0.5,0.834356640931219,"j",0.272398096043617,"d","Correct"
2,2,285,4,"6  5  4  2","1  3  6  2",1,3,2,NA,NA,1.52109525399283,"k",0.707863296382129,"s","Correct"
2,2,286,4,"1  2  6  4","3  4  2  5",1,5,3,NA,NA,1.29849448334426,"k",0.405927468091249,"d","Correct"
2,2,287,2,"6  5","1  4",0,5,4,0,0.5,1.00925972592086,"j",1.48793174885213,"d","Correct"
2,2,288,5,"2  1  4  5  3","4  2  1  3  5",1,6,5,NA,NA,2.0760041885078,"k",0.520086182747036,"a","Correct"
2,2,289,2,"5  3","5  1",0,3,1,0,0.5,1.20682177739218,"j",0.566149373073131,"d","Correct"
2,2,290,5,"6  3  1  4  5","4  3  2  5  6",1,2,4,NA,NA,1.80682467482984,"j",1.29422547714785,"d","Incorrect"
2,2,291,5,"4  1  2  3  6","6  5  2  3  1",1,5,1,NA,NA,4.45749632734805,"k",0.342384684830904,"d","Correct"
2,2,292,2,"6  3","3  1",0,3,1,0,0.5,0.915740024764091,"j",0.262480647768825,"d","Correct"
2,2,293,4,"2  1  4  3","4  6  3  5",1,5,4,NA,NA,0.839201871305704,"k",3.15702746994793,"d","Correct"
2,2,294,4,"5  2  1  6","4  6  2  3",1,3,3,NA,NA,1.23462178232148,"k",0.288634989410639,"a","Correct"
2,2,295,5,"6  3  2  1  5","3  6  5  2  4",0,6,3,4,2.5,1.87668509222567,"j",0.240793927107006,"d","Correct"
2,2,296,4,"5  3  6  4","1  3  2  5",0,4,5,0,0.5,1.11420851945877,"j",0.284871877171099,"d","Correct"
2,2,297,5,"1  6  2  4  5","1  6  5  4  3",0,6,6,3,2,2.16894887341186,"j",0.337645704858005,"s","Correct"
2,2,298,4,"5  3  1  4","4  5  6  2",1,6,5,NA,NA,1.8636628575623,"j",0.220394277013838,"s","Incorrect"
2,2,299,5,"3  1  4  5  6","6  2  5  4  3",0,1,2,3,2,1.05114235077053,"j",0.400493940804154,"d","Correct"
2,2,300,2,"5  1","3  6",1,2,3,NA,NA,0.659887912683189,"k",1.66445272788405,"d","Correct"
2,2,301,5,"5  4  2  6  1","2  5  4  1  6",1,3,6,NA,NA,1.13320911349729,"k",0.447312952950597,"d","Correct"
2,2,302,2,"1  5","3  2",0,1,3,1,1,0.776660009287298,"j",0.808671368286014,"d","Correct"
2,2,303,5,"5  3  6  1  4","3  6  2  4  1",0,3,6,3,2,2.63132061483338,"j",0.597480069845915,"d","Correct"
2,2,304,4,"6  2  1  4","3  4  1  5",1,3,5,NA,NA,2.44882369181141,"k",0.982214335352182,"a","Correct"
2,2,305,4,"2  4  6  3","6  5  1  2",0,2,6,3,2,1.13830547966063,"j",0.292367011774331,"d","Correct"
2,2,306,5,"3  5  1  6  2","1  4  6  2  3",0,2,3,0,0.5,0.839743382763118,"j",0.269777772016823,"d","Correct"
2,2,307,2,"1  4","3  6",0,4,6,0,0.5,0.76643648929894,"j",0.27916246233508,"d","Correct"
2,2,308,5,"1  4  5  3  6","6  1  2  5  3",1,2,6,NA,NA,1.85918799228966,"k",0.287926255259663,"d","Correct"
2,2,309,4,"4  2  5  6","3  5  6  4",0,2,5,2,1.5,1.19198907073587,"j",1.52727977372706,"d","Correct"
2,2,310,5,"6  2  3  4  1","3  6  1  5  2",1,5,1,NA,NA,0.753413650207222,"k",0.218775477726012,"d","Correct"
2,2,311,3,"3  6  4","5  1  6",0,6,1,1,1,0.801500415429473,"j",0.216812875587493,"d","Correct"
2,2,312,2,"3  1","5  1",0,3,5,1,1,0.667567475233227,"j",0.272240834310651,"d","Correct"
2,2,313,3,"2  5  6","3  5  1",0,2,3,2,1.5,1.31692821113393,"j",0.287634672131389,"d","Correct"
2,2,314,2,"3  2","2  1",1,4,2,NA,NA,0.543701699003577,"k",0.216981909703463,"d","Correct"
2,2,315,5,"3  1  4  2  6","2  5  3  1  4",1,5,4,NA,NA,0.775755377020687,"k",0.223791552707553,"d","Correct"
2,2,316,3,"1  6  4","4  3  6",1,5,4,NA,NA,0.990479780826718,"k",0.35849208664149,"d","Correct"
2,2,317,5,"1  5  4  2  6","2  5  6  1  4",1,3,5,NA,NA,1.2792406398803,"k",0.675238284748048,"d","Correct"
2,2,318,3,"3  2  6","2  5  3",0,6,3,0,0.5,0.879307529423386,"j",0.259400612674654,"d","Correct"
2,2,319,2,"5  1","6  3",1,4,6,NA,NA,1.50004482408986,"k",1.73535209847614,"d","Correct"
2,2,320,4,"4  5  3  2","2  6  3  1",0,4,2,3,2,1.26144984411076,"j",0.298212257213891,"d","Correct"
2,2,321,4,"5  2  4  6","4  3  5  6",0,5,4,3,2,1.94555273838341,"k",0.586927839554846,"a","Incorrect"
2,2,322,4,"6  4  2  5","5  1  2  3",0,2,2,1,1,1.11100834934041,"j",0.617653939407319,"d","Correct"
2,2,323,3,"5  3  1","4  3  5",1,4,3,NA,NA,2.16837385622785,"k",0.401091897394508,"d","Correct"
2,2,324,4,"6  5  2  4","2  5  6  1",1,1,2,NA,NA,1.21248832996935,"k",0.451198312919587,"d","Correct"
2,2,325,2,"4  1","5  4",1,6,4,NA,NA,1.59649997623637,"k",0.867908923421055,"d","Correct"
2,2,326,4,"2  1  6  3","3  4  1  2",0,3,2,0,0.5,1.01268869545311,"j",0.195367028005421,"d","Correct"
2,2,327,3,"6  1  5","6  3  1",1,4,6,NA,NA,1.35480081383139,"k",0.77205504802987,"d","Correct"
2,2,328,4,"6  1  5  4","4  6  1  5",0,4,5,0,0.5,1.93678381387144,"j",2.04278695490211,"d","Correct"
2,2,329,5,"4  2  6  5  3","3  5  4  1  6",0,3,6,0,0.5,0.896261004731059,"j",0.283651815727353,"d","Correct"
2,2,330,5,"1  2  3  6  4","4  1  2  5  6",0,6,5,1,1,0.895669990684837,"j",0.803065184503794,"d","Correct"
2,2,331,5,"1  4  2  5  3","6  3  5  4  1",0,1,6,4,2.5,1.27446815511212,"j",0.598511175252497,"s","Correct"
2,2,332,3,"4  5  1","1  3  2",1,3,2,NA,NA,0.885876299347728,"k",0.937862913124263,"d","Correct"
2,2,333,3,"3  5  2","5  3  1",1,6,3,NA,NA,1.59589718980715,"j",0.315323296468705,"d","Incorrect"
2,2,334,3,"2  4  1","1  3  5",1,3,5,NA,NA,0.926072813104838,"k",0.376044122502208,"s","Correct"
2,2,335,4,"2  5  1  3","2  6  3  1",0,3,1,0,0.5,2.52412488078699,"j",0.974128185771406,"d","Correct"
2,2,336,4,"5  4  3  2","5  6  3  2",0,2,2,0,0.5,0.818283046595752,"j",0.312927545979619,"d","Correct"
2,2,337,2,"5  6","6  5",1,2,6,NA,NA,0.575646953657269,"k",0.47963913762942,"d","Correct"
2,2,338,3,"3  5  6","5  1  3",1,4,3,NA,NA,1.95561628043652,"k",0.31707853032276,"d","Correct"
2,2,339,3,"2  4  6","2  1  4",0,6,4,0,0.5,2.19974590605125,"j",0.655125991906971,"d","Correct"
2,2,340,2,"1  5","6  1",0,1,6,1,1,1.07255167514086,"j",0.845183852594346,"d","Correct"
2,2,341,3,"5  6  2","1  2  5",1,1,2,NA,NA,0.722629294730723,"k",0.229328311514109,"d","Correct"
2,2,342,5,"4  6  2  3  1","6  5  3  4  2",0,4,6,4,2.5,1.35532451607287,"j",0.332712637260556,"d","Correct"
2,2,343,3,"6  3  1","5  3  4",1,2,4,NA,NA,0.806727782357484,"k",0.350136389024556,"d","Correct"
2,2,344,5,"2  1  4  3  5","6  1  3  4  2",0,5,2,0,0.5,0.911475244443864,"j",0.202214703895152,"d","Correct"
2,2,345,3,"1  3  6","3  2  5",0,3,2,1,1,0.537617693655193,"j",0.2516087628901,"d","Correct"
2,2,346,3,"5  1  2","2  4  6",0,1,4,1,1,0.769005499314517,"j",0.217672231141478,"d","Correct"
2,2,347,3,"6  4  5","6  1  2",0,6,6,2,1.5,0.624444263987243,"j",0.238414777908474,"d","Correct"
2,2,348,4,"4  2  3  1","1  2  4  5",0,3,4,1,1,2.40035267639905,"j",0.279836785513908,"s","Correct"
2,2,349,4,"6  1  3  5","6  1  2  5",0,6,6,3,2,0.591900448780507,"j",0.263252769596875,"d","Correct"
2,2,350,2,"5  6","3  6",0,6,6,0,0.5,0.719976069405675,"j",0.282635802403092,"d","Correct"
2,2,351,4,"2  4  6  5","3  4  2  5",1,1,2,NA,NA,0.842931478749961,"k",0.480004370678216,"s","Correct"
2,2,352,4,"6  1  2  3","5  2  3  1",1,5,3,NA,NA,0.848190539516509,"k",0.365447219461203,"s","Correct"
2,2,353,5,"6  5  4  1  2","6  1  2  3  5",1,3,6,NA,NA,1.92610601615161,"k",0.38420814787969,"s","Correct"
2,2,354,2,"4  2","3  6",0,2,6,0,0.5,0.756249492522329,"j",0.317620645277202,"d","Correct"
2,2,355,2,"5  3","1  5",1,1,1,NA,NA,2.20424793707207,"k",0.467640160117298,"d","Correct"
2,2,356,3,"5  6  3","3  1  4",1,4,4,NA,NA,0.704402029514313,"k",0.803722605109215,"d","Correct"
2,2,357,4,"6  3  4  1","3  4  1  2",1,5,1,NA,NA,0.919109228998423,"k",0.401820553001016,"d","Correct"
2,2,358,2,"3  6","5  1",1,2,1,NA,NA,1.73312296671793,"j",1.76715729711577,"d","Incorrect"
2,2,359,5,"1  3  4  5  2","1  3  4  6  2",1,6,3,NA,NA,1.01604039175436,"k",3.24658302916214,"s","Correct"
2,2,360,3,"3  4  1","6  3  2",0,3,6,2,1.5,0.852132646832615,"j",0.289462952874601,"d","Correct"
2,2,361,3,"3  1  4","1  5  4",0,4,4,0,0.5,0.725520374719054,"j",0.263552200980484,"d","Correct"
2,2,362,5,"1  3  2  4  5","1  3  4  5  6",0,2,4,2,1.5,0.852282664272934,"j",0.225598401855677,"d","Correct"
2,2,363,3,"2  6  3","4  2  6",1,1,2,NA,NA,0.583686618600041,"k",0.231677577830851,"d","Correct"
2,2,364,3,"1  2  5","6  4  2",1,4,6,NA,NA,0.733700096141547,"k",0.183741132263094,"d","Correct"
2,2,365,3,"5  3  6","2  1  5",1,2,2,NA,NA,0.711819891817868,"k",0.242469171527773,"d","Correct"
2,2,366,5,"6  5  2  3  1","3  5  2  1  4",1,4,3,NA,NA,0.671902284026146,"k",0.156573795713484,"d","Correct"
2,2,367,5,"6  4  5  3  2","2  1  5  4  6",0,6,2,4,2.5,1.67785347718745,"j",0.225988688878715,"d","Correct"
2,2,368,4,"4  2  1  6","6  1  5  4",0,4,6,3,2,0.843987637665123,"j",0.193383900914341,"d","Correct"
2,2,369,3,"5  6  4","4  6  2",1,1,2,NA,NA,0.624782633502036,"k",0.318830745760351,"d","Correct"
2,2,370,3,"1  6  2","6  1  5",1,3,5,NA,NA,1.49743446102366,"k",0.364874014165252,"s","Correct"
2,2,371,2,"6  1","2  4",1,3,2,NA,NA,0.985519245732576,"k",0.441583616659045,"d","Correct"
2,2,372,2,"4  2","5  4",1,6,4,NA,NA,0.778976374305785,"k",0.194980665110052,"d","Correct"
2,2,373,4,"5  4  1  6","5  4  6  2",0,6,2,0,0.5,1.20634395536035,"j",0.221757715102285,"d","Correct"
2,2,374,5,"1  6  5  3  4","1  4  2  3  5",0,3,3,1,1,1.10843269852921,"j",0.271137587726116,"s","Correct"
2,2,375,4,"2  3  4  6","4  5  2  1",0,3,5,2,1.5,1.49579302314669,"j",0.763211869634688,"d","Correct"
2,2,376,3,"2  5  4","5  4  6",1,6,6,NA,NA,0.91593350796029,"k",0.270650710444897,"d","Correct"
2,2,377,2,"1  3","5  3",0,1,5,1,1,0.847370122559369,"j",0.212703546043485,"d","Correct"
2,2,378,3,"3  4  6","1  5  2",0,6,2,0,0.5,0.659473780076951,"j",0.360093077179044,"d","Correct"
2,2,379,2,"4  2","6  2",0,2,2,0,0.5,0.772875767201185,"j",0.45340842846781,"d","Correct"
2,2,380,2,"5  4","3  2",0,5,3,1,1,1.18283529300243,"j",0.830854323226959,"d","Correct"
2,2,381,4,"4  2  5  3","5  2  6  4",1,6,2,NA,NA,0.920941131189466,"k",0.563602397684008,"d","Correct"
2,2,382,5,"6  3  5  1  4","3  4  5  1  2",0,4,2,0,0.5,0.764373070560396,"j",0.30909802718088,"d","Correct"
2,2,383,2,"5  2","3  6",0,2,6,0,0.5,0.619756899308413,"j",0.234496818389744,"d","Correct"
2,2,384,5,"2  5  4  6  3","6  4  2  5  3",0,2,6,4,2.5,0.912473147269338,"j",0.195198597852141,"d","Correct"
2,2,385,3,"6  2  5","1  3  2",1,4,3,NA,NA,0.466605432331562,"k",0.319283212535083,"d","Correct"
2,2,386,4,"6  1  4  3","6  3  2  4",0,1,3,2,1.5,1.0139374313876,"j",0.356672258116305,"d","Correct"
2,2,387,2,"4  5","2  5",0,4,2,1,1,0.554051088634878,"j",0.275380937382579,"d","Correct"
2,2,388,2,"2  6","6  3",1,1,3,NA,NA,0.891464069951326,"k",0.246770173776895,"d","Correct"
2,2,389,4,"5  6  1  2","2  6  1  5",1,3,5,NA,NA,2.99205269990489,"k",0.719545939005911,"s","Correct"
2,2,390,3,"2  1  6","1  6  4",1,4,1,NA,NA,0.762307840865105,"k",0.338947565760463,"d","Correct"
2,2,391,4,"6  1  2  5","6  3  4  2",0,2,4,1,1,1.00903364364058,"j",0.279719066340476,"d","Correct"
2,2,392,5,"3  2  6  5  4","3  2  5  6  1",1,1,6,NA,NA,0.891805457882583,"k",0.255114702973515,"d","Correct"
2,2,393,2,"2  4","6  3",0,2,6,1,1,1.68048074375838,"j",0.252542070578784,"d","Correct"
2,2,394,3,"5  1  4","4  5  6",1,6,4,NA,NA,0.953968805260956,"k",0.275284950155765,"d","Correct"
2,2,395,5,"2  5  6  3  1","2  1  4  5  3",0,3,5,1,1,0.823340171948075,"j",0.286038813181221,"d","Correct"
2,2,396,2,"4  6","5  6",1,1,5,NA,NA,0.670077927410603,"k",0.346793144010007,"d","Correct"
2,2,397,3,"5  4  6","5  2  3",1,3,3,NA,NA,1.25205851346254,"k",1.28143958747387,"s","Correct"
2,2,398,3,"1  4  5","3  2  5",1,2,2,NA,NA,1.49350774800405,"k",0.256905856542289,"d","Correct"
2,2,399,4,"3  1  6  4","6  3  4  1",1,5,4,NA,NA,1.93027662066743,"k",0.308352166321129,"d","Correct"
2,2,400,3,"2  4  6","2  3  5",1,5,3,NA,NA,1.9749932764098,"k",0.711088519543409,"d","Correct"
3,3,1,5,"1  4  6  5  3","1  3  5  6  4",1,2,2,NA,NA,0.976455719675869,"k",2.27231659786776,"d","Correct"
3,3,2,3,"2  4  6","2  1  6",0,4,1,1,1,1.02039210358635,"j",0.243035434745252,"d","Correct"
3,3,3,3,"4  3  6","4  5  2",1,1,3,NA,NA,1.04830982908607,"k",0.229719805531204,"d","Correct"
3,3,4,4,"3  1  5  6","1  2  4  5",1,2,3,NA,NA,0.975652809720486,"k",0.1996801039204,"d","Correct"
3,3,5,5,"1  2  4  6  5","4  1  2  5  3",1,3,6,NA,NA,1.51094146026298,"j",0.53760531777516,"s","Incorrect"
3,3,6,2,"4  6","4  3",0,6,3,0,0.5,1.00757452053949,"j",0.198254485614598,"d","Correct"
3,3,7,2,"3  2","1  4",1,1,3,NA,NA,0.88152247434482,"k",0.157552380114794,"d","Correct"
3,3,8,5,"4  2  1  5  6","3  4  1  6  5",0,5,6,1,1,0.918187994975597,"j",0.160858196206391,"d","Correct"
3,3,9,5,"2  6  1  4  3","5  4  2  1  6",0,6,4,3,2,0.937483492773026,"j",0.395502617117018,"s","Correct"
3,3,10,4,"4  3  1  2","6  3  2  5",0,4,6,3,2,1.05477536795661,"j",0.356140103656799,"s","Correct"
3,3,11,4,"1  2  5  4","3  4  5  6",1,3,2,NA,NA,1.16139850020409,"k",0.338077042251825,"s","Correct"
3,3,12,5,"6  1  4  5  2","5  6  2  3  1",0,6,5,4,2.5,2.63594066770747,"k",0.426042477600276,"s","Incorrect"
3,3,13,2,"2  1","6  1",1,5,2,NA,NA,0.748020872008055,"k",0.24533489625901,"d","Correct"
3,3,14,4,"3  6  2  1","2  1  5  6",0,6,1,2,1.5,0.982631788123399,"j",0.150650070048869,"d","Correct"
3,3,15,3,"2  1  3","1  6  2",1,4,3,NA,NA,0.823951409664005,"k",0.173973701428622,"d","Correct"
3,3,16,2,"1  3","1  6",0,1,1,1,1,0.785925772041082,"j",0.145924069453031,"d","Correct"
3,3,17,2,"1  6","2  6",0,6,6,0,0.5,0.879223314579576,"j",0.123262688517571,"d","Correct"
3,3,18,2,"5  2","6  3",1,1,4,NA,NA,0.817848086357117,"k",0.128530201036483,"d","Correct"
3,3,19,4,"5  1  6  3","2  3  1  6",1,2,5,NA,NA,0.806489021982998,"k",0.221904411911964,"d","Correct"
3,3,20,4,"2  6  4  5","5  1  4  6",1,1,2,NA,NA,2.07237268052995,"j",0.293136115651578,"s","Incorrect"
3,3,21,5,"5  4  6  1  2","4  6  2  3  5",1,3,1,NA,NA,0.88841904932633,"k",0.30843517370522,"d","Correct"
3,3,22,4,"1  5  2  3","5  3  4  1",0,5,3,2,1.5,1.50703798979521,"j",0.382193628698587,"s","Correct"
3,3,23,2,"5  6","4  2",0,6,2,0,0.5,0.994364235550165,"j",0.209704103413969,"d","Correct"
3,3,24,4,"3  6  1  4","4  3  2  5",1,2,1,NA,NA,0.780317173339427,"k",0.236278916709125,"d","Correct"
3,3,25,5,"2  4  1  3  5","1  6  4  3  2",0,1,4,2,1.5,1.76229365449399,"j",0.194958328735083,"s","Correct"
3,3,26,2,"5  4","4  6",0,5,4,1,1,0.910234054084867,"j",0.232923295814544,"d","Correct"
3,3,27,2,"4  2","2  5",1,1,4,NA,NA,0.69090468948707,"k",0.118238161783665,"d","Correct"
3,3,28,3,"1  2  4","3  6  2",0,2,6,1,1,0.848879955708981,"j",0.118236652575433,"d","Correct"
3,3,29,4,"6  3  2  4","1  2  5  4",0,2,5,1,1,0.884845193941146,"j",0.416812936309725,"s","Correct"
3,3,30,3,"4  3  2","5  6  1",1,6,3,NA,NA,0.79147822689265,"k",0.150802804622799,"d","Correct"
3,3,31,2,"3  1","3  5",0,1,5,0,0.5,0.820124306250364,"j",0.0908202934078872,"d","Correct"
3,3,32,4,"5  6  3  4","5  6  4  1",1,1,2,NA,NA,0.786063413601369,"k",0.114117362070829,"d","Correct"
3,3,33,2,"3  4","6  3",0,4,3,0,0.5,0.736736967694014,"j",0.0828017573803663,"d","Correct"
3,3,34,2,"1  4","5  6",1,5,1,NA,NA,0.810692527797073,"k",0.0653813262470067,"d","Correct"
3,3,35,5,"4  6  3  1  2","3  4  2  1  6",0,1,1,1,1,0.98198463069275,"j",0.246001372113824,"s","Correct"
3,3,36,3,"6  1  5","6  2  5",0,5,5,0,0.5,0.739188861567527,"j",0.149328588973731,"d","Correct"
3,3,37,3,"4  1  5","6  4  3",1,6,2,NA,NA,0.646607901435345,"k",0.0999650158919394,"d","Correct"
3,3,38,3,"4  1  3","5  4  6",0,3,6,0,0.5,0.839251373894513,"j",0.141273529734463,"d","Correct"
3,3,39,3,"2  4  6","2  3  4",1,3,5,NA,NA,0.606552047654986,"k",0.109933777712286,"d","Correct"
3,3,40,5,"3  1  5  6  2","6  4  5  3  2",1,4,1,NA,NA,0.624509463086724,"k",0.0945323938503861,"d","Correct"
3,3,41,5,"6  4  1  3  5","5  4  1  3  2",0,1,1,2,1.5,1.40977449389175,"j",0.832432373426855,"a","Correct"
3,3,42,4,"1  2  5  6","5  2  6  1",0,6,1,0,0.5,0.666435251478106,"j",0.335102954879403,"d","Correct"
3,3,43,3,"6  4  1","4  1  2",0,1,2,0,0.5,1.01704734982923,"j",0.167764127720147,"s","Correct"
3,3,44,4,"3  2  5  4","6  1  5  2",1,6,4,NA,NA,0.996374227572232,"k",0.0997422537766397,"d","Correct"
3,3,45,5,"1  6  3  4  5","5  6  1  3  2",0,4,3,1,1,1.05499299895018,"j",0.0923693664371967,"s","Correct"
3,3,46,4,"2  4  5  1","3  5  2  6",0,4,5,2,1.5,0.995608444325626,"j",0.138977086637169,"s","Correct"
3,3,47,5,"4  1  3  2  5","3  4  5  6  1",0,1,4,3,2,0.788956908043474,"j",0.109036087989807,"s","Correct"
3,3,48,2,"3  5","4  5",0,3,4,1,1,0.771561832167208,"j",0.2762849656865,"d","Correct"
3,3,49,5,"5  3  1  6  4","6  5  3  2  4",0,1,3,2,1.5,0.824204054661095,"k",0.398169123567641,"d","Incorrect"
3,3,50,3,"1  6  5","5  2  1",0,5,1,0,0.5,0.917484694160521,"j",0.0881622387096286,"d","Correct"
3,3,51,4,"4  5  1  2","6  1  4  2",0,2,2,0,0.5,0.704132179263979,"j",0.0994983622804284,"d","Correct"
3,3,52,4,"4  1  6  5","3  4  2  5",1,3,1,NA,NA,0.666786902118474,"k",0.0794757176190615,"d","Correct"
3,3,53,2,"2  3","6  3",1,4,1,NA,NA,0.83140851277858,"k",0.125439298804849,"d","Correct"
3,3,54,3,"3  5  4","5  3  4",0,3,5,2,1.5,2.34331618156284,"k",0.0647649569436908,"s","Incorrect"
3,3,55,5,"3  6  4  1  5","1  6  4  2  3",0,1,2,1,1,3.00521680200472,"k",0.108674778603017,"s","Incorrect"
3,3,56,2,"4  2","4  6",0,2,6,0,0.5,1.85924111725762,"j",0.111933808773756,"d","Correct"
3,3,57,5,"2  5  4  1  3","5  6  2  1  4",1,6,3,NA,NA,1.25055984873325,"k",0.111899096984416,"s","Correct"
3,3,58,5,"5  2  3  1  4","1  4  6  5  3",1,6,2,NA,NA,1.2025280194357,"k",0.393875366076827,"s","Correct"
3,3,59,5,"2  5  3  1  4","3  6  1  5  4",1,6,2,NA,NA,1.15315931523219,"k",0.0985276261344552,"d","Correct"
3,3,60,5,"2  5  1  3  6","6  1  2  5  4",0,2,6,4,2.5,1.46176171116531,"j",0.282466769218445,"s","Correct"
3,3,61,5,"6  2  1  5  3","1  6  5  3  2",1,4,4,NA,NA,1.40638234978542,"k",0.173762711230665,"d","Correct"
3,3,62,4,"4  6  2  3","6  1  5  4",1,5,2,NA,NA,1.34638776537031,"k",0.0917327734641731,"s","Correct"
3,3,63,5,"3  6  4  2  1","4  3  6  5  2",0,6,3,3,2,1.26298925839365,"j",0.155683954246342,"s","Correct"
3,3,64,3,"3  1  2","4  6  1",0,3,4,2,1.5,1.07696949131787,"j",0.0729968976229429,"d","Correct"
3,3,65,4,"4  5  1  6","6  2  4  5",0,5,2,2,1.5,1.48160204105079,"j",0.517658738885075,"s","Correct"
3,3,66,3,"4  2  1","3  1  5",0,2,1,1,1,1.0002638134174,"j",0.119569905567914,"d","Correct"
3,3,67,5,"5  4  6  2  3","6  1  4  3  5",1,1,2,NA,NA,1.27418049564585,"k",0.206182166002691,"d","Correct"
3,3,68,5,"2  6  4  1  5","1  5  3  4  2",1,3,6,NA,NA,1.10150080779567,"k",0.128860420081764,"d","Correct"
3,3,69,3,"6  3  4","6  3  2",0,6,6,2,1.5,0.866796621121466,"j",0.17547991219908,"d","Correct"
3,3,70,3,"3  1  5","4  5  1",0,3,4,2,1.5,0.903424109797925,"j",0.210779580753297,"d","Correct"
3,3,71,5,"1  5  6  4  2","3  4  6  1  5",1,3,2,NA,NA,3.88922829786316,"k",0.725384242366999,"a","Correct"
3,3,72,3,"5  6  2","1  5  6",1,4,3,NA,NA,1.50332075729966,"k",0.0746830091811717,"d","Correct"
3,3,73,2,"3  5","1  3",1,2,4,NA,NA,2.57055300287902,"k",0.187296574469656,"d","Correct"
3,3,74,4,"2  1  6  3","2  6  5  4",1,5,1,NA,NA,1.05523417331278,"k",0.0845509544014931,"d","Correct"
3,3,75,2,"5  6","5  2",1,1,4,NA,NA,1.16454222472385,"k",0.0932513596490026,"d","Correct"
3,3,76,3,"6  4  5","5  1  4",1,1,3,NA,NA,1.04051647009328,"k",0.0778922340832651,"d","Correct"
3,3,77,3,"4  5  3","5  2  6",0,3,6,0,0.5,1.30580156855285,"j",0.213215174619108,"d","Correct"
3,3,78,4,"1  6  5  2","1  2  4  6",1,4,3,NA,NA,0.919760914053768,"k",0.114498291630298,"d","Correct"
3,3,79,5,"5  4  3  6  1","4  2  1  6  5",0,4,2,3,2,1.67706294264644,"j",0.673079483211041,"s","Correct"
3,3,80,5,"3  2  6  4  5","3  5  1  2  4",0,4,2,1,1,1.15769243659452,"j",0.0943449474871159,"s","Correct"
3,3,81,2,"6  3","2  3",1,1,6,NA,NA,1.00569220958278,"k",0.165024876594543,"d","Correct"
3,3,82,5,"3  1  5  2  6","1  4  6  5  3",1,4,2,NA,NA,0.989659967366606,"k",0.0696934969164431,"d","Correct"
3,3,83,2,"2  6","1  3",1,3,6,NA,NA,0.85426277294755,"k",0.0836620186455548,"d","Correct"
3,3,84,3,"5  2  6","5  2  6",1,1,3,NA,NA,1.14355910662562,"k",0.264945219736546,"s","Correct"
3,3,85,4,"3  1  4  5","3  6  5  2",1,2,4,NA,NA,1.02556513855234,"k",0.583523923996836,"s","Correct"
3,3,86,2,"2  3","1  5",0,2,1,1,1,1.06753892078996,"j",0.152185560204089,"d","Correct"
3,3,87,3,"4  6  2","5  1  6",1,3,2,NA,NA,1.1294779968448,"k",0.107516898307949,"d","Correct"
3,3,88,3,"5  4  6","6  5  4",0,6,4,0,0.5,1.08611421426758,"j",0.0981623926199973,"d","Correct"
3,3,89,3,"3  5  1","2  5  6",1,6,3,NA,NA,1.38941136747599,"k",0.0854739993810654,"s","Correct"
3,3,90,2,"1  5","3  2",0,5,2,0,0.5,0.957399585749954,"j",0.0381014011800289,"d","Correct"
3,3,91,5,"4  5  6  1  2","5  1  6  4  2",0,4,5,4,2.5,1.42000676738098,"j",0.162735375575721,"s","Correct"
3,3,92,5,"3  5  1  4  6","5  4  3  2  6",1,2,1,NA,NA,1.09132316848263,"k",0.0786719024181366,"d","Correct"
3,3,93,2,"1  3","6  1",0,3,1,0,0.5,0.814641275443137,"j",0.0533325443975627,"d","Correct"
3,3,94,2,"1  4","2  6",0,1,2,1,1,0.782599731814116,"j",0.02264025202021,"d","Correct"
3,3,95,2,"6  5","1  3",1,1,4,NA,NA,1.0092322579585,"k",0.0719211190007627,"d","Correct"
3,3,96,5,"3  1  2  6  4","1  4  6  5  2",0,1,4,3,2,1.23651465773582,"k",0.106572120450437,"s","Incorrect"
3,3,97,3,"5  6  2","1  2  6",0,6,2,1,1,0.989821454975754,"j",0.141877221874893,"d","Correct"
3,3,98,5,"4  1  6  2  3","3  4  1  6  5",1,5,2,NA,NA,0.967149811331183,"k",0.0718347909860313,"d","Correct"
3,3,99,2,"2  5","4  1",0,2,4,1,1,0.74446995742619,"j",0.0657827816903591,"d","Correct"
3,3,100,4,"5  4  1  3","4  6  2  5",1,2,1,NA,NA,0.866394864395261,"k",0.111101015936583,"d","Correct"
3,3,101,4,"6  4  3  5","5  6  3  1",1,2,2,NA,NA,0.773742064833641,"k",0.110430012922734,"d","Correct"
3,3,102,2,"4  1","3  1",1,5,4,NA,NA,0.589006048627198,"k",0.0930681396275759,"d","Correct"
3,3,103,3,"6  1  3","1  3  5",1,2,6,NA,NA,0.592336918227375,"k",0.0876895477995276,"d","Correct"
3,3,104,2,"2  1","3  2",1,3,4,NA,NA,0.62365554086864,"k",0.0383404637686908,"d","Correct"
3,3,105,2,"1  5","6  3",1,6,2,NA,NA,0.472288586199284,"k",0.076985489577055,"d","Correct"
3,3,106,3,"1  2  6","4  5  3",1,4,6,NA,NA,0.544957075733691,"k",0.0502956728450954,"d","Correct"
3,3,107,2,"1  5","2  4",1,4,1,NA,NA,0.363598111551255,"k",0.236242694780231,"d","Correct"
3,3,108,4,"6  5  3  4","1  5  6  3",0,4,3,0,0.5,0.702225117012858,"j",0.0815989021211863,"d","Correct"
3,3,109,5,"1  5  3  4  2","6  5  4  2  3",0,3,4,2,1.5,1.92543863505125,"k",0.527416208293289,"s","Incorrect"
3,3,110,2,"5  6","3  2",1,4,5,NA,NA,2.12539613526315,"k",0.255441602319479,"d","Correct"
3,3,111,3,"5  2  4","6  4  3",1,6,5,NA,NA,0.82078353734687,"k",0.163454070687294,"d","Correct"
3,3,112,3,"4  2  5","4  5  3",0,5,3,0,0.5,0.700076879933476,"j",0.119407512713224,"d","Correct"
3,3,113,5,"1  6  2  5  3","3  6  1  2  5",0,1,3,4,2.5,1.14601552905515,"j",0.331369423307478,"s","Correct"
3,3,114,3,"3  5  6","5  6  1",0,5,6,1,1,0.973337349947542,"j",0.158044690731913,"d","Correct"
3,3,115,3,"6  3  2","4  5  3",0,2,3,0,0.5,0.718635269906372,"j",0.0973235629498959,"d","Correct"
3,3,116,3,"5  4  3","6  4  1",1,1,5,NA,NA,1.04460799135268,"k",0.121967165730894,"d","Correct"
3,3,117,2,"5  3","1  6",0,5,1,1,1,2.47247422160581,"j",0.349223607219756,"s","Correct"
3,3,118,2,"3  1","3  6",1,6,2,NA,NA,0.738569473847747,"k",0.364513610024005,"d","Correct"
3,3,119,4,"3  6  1  4","2  4  3  1",1,5,5,NA,NA,0.889179097022861,"k",0.101177229080349,"d","Correct"
3,3,120,5,"4  6  3  1  2","3  2  1  5  6",1,5,4,NA,NA,1.1204337887466,"j",0.107156494166702,"s","Incorrect"
3,3,121,4,"5  2  4  3","2  6  5  4",1,6,3,NA,NA,1.14641698403284,"k",0.323778603225946,"d","Correct"
3,3,122,5,"4  1  2  6  3","5  4  3  1  2",1,5,6,NA,NA,1.00635415781289,"k",0.149743023328483,"d","Correct"
3,3,123,3,"6  2  4","1  2  5",0,6,1,2,1.5,1.023036273662,"j",0.125717902556062,"d","Correct"
3,3,124,3,"1  6  4","2  3  4",0,4,4,0,0.5,0.959675202146173,"j",0.120376739650965,"s","Correct"
3,3,125,2,"1  2","6  3",0,2,3,0,0.5,0.967000397387892,"j",0.0716705871745944,"d","Correct"
3,3,126,2,"5  3","5  3",1,1,1,NA,NA,1.00827450118959,"k",0.126959998626262,"d","Correct"
3,3,127,3,"1  5  3","2  5  4",0,3,4,0,0.5,1.15290274610743,"j",0.226310758385807,"s","Correct"
3,3,128,5,"2  6  3  4  5","5  4  3  2  1",1,1,6,NA,NA,0.912196052726358,"k",0.154868970159441,"s","Correct"
3,3,129,5,"2  6  4  3  1","5  2  3  6  4",0,3,6,1,1,1.51611449522898,"j",0.09480767743662,"s","Correct"
3,3,130,2,"1  5","5  1",1,3,4,NA,NA,1.2701158397831,"k",0.0908465539105237,"d","Correct"
3,3,131,5,"1  6  4  5  3","2  5  4  6  1",1,2,3,NA,NA,1.25406367564574,"k",0.107462867628783,"s","Correct"
3,3,132,4,"4  1  3  5","2  4  5  6",0,3,5,1,1,1.14604722289369,"j",0.0277055278420448,"s","Correct"
3,3,133,5,"6  4  2  1  3","3  5  1  2  6",0,4,5,3,2,0.961345314979553,"j",0.090039418078959,"s","Correct"
3,3,134,4,"3  4  6  1","2  6  4  5",1,5,3,NA,NA,1.76991737540811,"k",0.138684597797692,"s","Correct"
3,3,135,3,"2  6  5","6  1  4",0,5,4,0,0.5,0.972609297372401,"j",0.109310466330498,"d","Correct"
3,3,136,3,"5  2  6","4  2  1",0,6,1,0,0.5,0.991922000888735,"j",0.199206809513271,"d","Correct"
3,3,137,4,"1  4  5  3","3  5  2  6",1,2,1,NA,NA,1.12256089691073,"k",0.12526754848659,"s","Correct"
3,3,138,2,"1  5","4  3",1,6,2,NA,NA,1.27515787258744,"k",1.95106987748295,"d","Correct"
3,3,139,3,"3  1  2","1  3  6",0,1,3,1,1,3.37631608592346,"k",5.52818138757721,"s","Incorrect"
3,3,140,2,"3  6","2  4",0,6,4,0,0.5,0.822421353310347,"j",0.149168007075787,"d","Correct"
3,3,141,3,"6  1  4","6  2  4",0,6,6,2,1.5,0.766368573531508,"j",0.0790519258007407,"d","Correct"
3,3,142,2,"4  3","2  4",0,4,2,1,1,0.687020234763622,"j",0.0750491479411721,"d","Correct"
3,3,143,5,"2  6  4  1  5","3  4  6  5  2",1,3,1,NA,NA,0.806989180855453,"k",0.110330705530941,"d","Correct"
3,3,144,4,"4  1  6  3","2  1  6  5",0,1,1,2,1.5,1.34092284552753,"k",0.542279401328415,"s","Incorrect"
3,3,145,3,"4  2  1","6  2  3",0,4,6,2,1.5,0.951584524940699,"j",0.112927787471563,"d","Correct"
3,3,146,4,"3  6  4  1","3  2  1  5",1,5,4,NA,NA,1.07153113465756,"k",0.108233479782939,"d","Correct"
3,3,147,4,"3  5  1  6","1  4  2  5",0,3,1,3,2,0.882914285641164,"j",0.294866295997053,"s","Correct"
3,3,148,2,"6  3","6  1",0,6,6,1,1,1.11012031883001,"j",0.104817188344896,"d","Correct"
3,3,149,2,"5  6","3  4",1,2,5,NA,NA,1.0960760335438,"k",0.107464679051191,"d","Correct"
3,3,150,5,"2  6  5  3  4","3  2  5  1  6",1,1,4,NA,NA,0.998066676780581,"k",0.22941735573113,"s","Correct"
3,3,151,2,"4  3","3  5",1,5,4,NA,NA,1.06336469436064,"k",0.108033960219473,"d","Correct"
3,3,152,2,"5  6","6  3",1,4,4,NA,NA,1.02664846321568,"k",0.0967077976092696,"d","Correct"
3,3,153,5,"1  4  2  3  5","5  1  2  6  4",0,2,2,2,1.5,1.78792610438541,"k",0.11599665414542,"d","Incorrect"
3,3,154,4,"5  6  2  1","5  6  2  3",0,6,6,2,1.5,1.28258599806577,"j",0.158653211779892,"s","Correct"
3,3,155,5,"2  5  1  4  3","2  5  4  6  1",0,4,6,1,1,1.49517846526578,"j",0.578565803356469,"d","Correct"
3,3,156,4,"2  1  5  3","3  6  2  4",0,2,3,3,2,2.54242277797312,"j",1.59177306992933,"a","Correct"
3,3,157,5,"4  6  1  5  3","4  1  5  2  3",1,2,6,NA,NA,1.77505901828408,"k",0.175448520109057,"s","Correct"
3,3,158,5,"5  1  3  6  2","1  3  2  5  6",1,4,4,NA,NA,1.64702414674684,"j",0.212738258298486,"s","Incorrect"
3,3,159,5,"2  4  5  1  3","1  4  5  3  2",1,6,6,NA,NA,1.0750358668156,"k",0.255344709381461,"d","Correct"
3,3,160,2,"2  3","2  5",0,3,5,0,0.5,1.30431618494913,"j",0.323683219961822,"s","Correct"
3,3,161,5,"5  6  4  2  1","5  3  1  4  2",0,4,1,2,1.5,0.910298950970173,"j",0.200982870534062,"s","Correct"
3,3,162,2,"4  5","6  5",1,2,4,NA,NA,1.71628811676055,"k",0.478940062224865,"d","Correct"
3,3,163,5,"4  2  3  5  1","5  3  1  6  4",1,6,2,NA,NA,1.16288358205929,"k",0.115577390417457,"s","Correct"
3,3,164,2,"2  6","6  3",0,6,3,0,0.5,0.826195634435862,"j",0.144249428529292,"d","Correct"
3,3,165,5,"1  4  2  5  6","5  1  4  2  3",0,2,4,2,1.5,1.27347689354792,"j",0.318167288322002,"s","Correct"
3,3,166,5,"1  4  3  6  2","6  2  5  3  4",1,5,1,NA,NA,0.944776088930666,"k",0.186148654669523,"s","Correct"
3,3,167,4,"2  4  6  3","5  2  4  1",0,4,2,2,1.5,1.08607135200873,"k",0.106130519881845,"s","Incorrect"
3,3,168,5,"3  6  5  1  2","6  2  1  3  5",0,1,3,1,1,1.16537199914455,"k",0.118051922880113,"s","Incorrect"
3,3,169,4,"2  6  3  1","5  1  6  4",0,6,1,2,1.5,1.04464723123237,"j",0.258037476334721,"s","Correct"
3,3,170,3,"1  2  6","6  4  2",1,3,1,NA,NA,1.20662044594064,"k",0.238047732971609,"d","Correct"
3,3,171,2,"2  1","4  1",0,1,1,0,0.5,0.863959572277963,"j",0.0366271859966218,"d","Correct"
3,3,172,4,"4  3  5  6","1  3  5  2",1,1,6,NA,NA,1.83055036468431,"j",0.0606480813585222,"s","Incorrect"
3,3,173,2,"1  4","1  3",0,1,1,1,1,2.07715452322736,"j",0.409232680685818,"d","Correct"
3,3,174,3,"5  4  2","2  6  3",1,3,1,NA,NA,2.10378065006807,"j",0.419210498221219,"d","Incorrect"
3,3,175,3,"3  2  6","6  1  3",0,2,1,1,1,0.641774745192379,"j",0.0791445928625762,"d","Correct"
3,3,176,5,"5  2  1  4  3","4  3  2  1  6",0,2,3,3,2,3.36295608524233,"k",0.12378156138584,"s","Incorrect"
3,3,177,4,"1  2  6  3","5  1  3  6",0,6,3,1,1,1.37837195815519,"j",0.106402784585953,"s","Correct"
3,3,178,2,"1  3","5  3",1,6,1,NA,NA,1.67363487929106,"k",0.470367941074073,"d","Correct"
3,3,179,3,"5  4  2","2  4  6",0,5,2,2,1.5,1.24295514356345,"j",0.216289172880352,"s","Correct"
3,3,180,2,"4  3","3  5",1,2,1,NA,NA,0.834952485281974,"k",0.160968067590147,"d","Correct"
3,3,181,2,"6  5","1  2",1,1,5,NA,NA,0.701597881503403,"k",0.120974092744291,"d","Correct"
3,3,182,5,"5  1  6  2  4","6  5  4  2  3",1,3,1,NA,NA,0.69955015880987,"k",0.126947320997715,"d","Correct"
3,3,183,4,"4  2  6  3","4  1  6  2",1,5,5,NA,NA,0.724881668575108,"k",0.0628935126587749,"d","Correct"
3,3,184,4,"6  1  4  2","2  1  5  6",1,3,4,NA,NA,0.711511405650526,"k",0.0661984230391681,"d","Correct"
3,3,185,3,"1  4  3","1  3  6",0,3,6,0,0.5,0.822746139485389,"j",0.0775176435709,"d","Correct"
3,3,186,3,"5  6  1","3  6  1",1,4,2,NA,NA,0.753431761171669,"k",0.0827993429265916,"d","Correct"
3,3,187,4,"4  3  5  1","3  5  6  2",0,4,3,3,2,2.23466826649383,"j",0.0887484233826399,"s","Correct"
3,3,188,3,"4  5  2","6  2  4",0,2,4,0,0.5,3.54054378718138,"j",0.182036608457565,"d","Correct"
3,3,189,5,"4  1  5  3  6","1  4  2  5  3",1,2,6,NA,NA,0.821971300989389,"k",0.644637149292976,"s","Correct"
3,3,190,2,"4  3","6  4",1,2,2,NA,NA,0.653969318605959,"k",0.163317636586726,"d","Correct"
3,3,191,4,"3  6  5  4","4  1  3  5",0,5,3,1,1,1.23985639354214,"k",0.405882191378623,"s","Incorrect"
3,3,192,3,"5  2  6","3  5  2",1,3,1,NA,NA,0.965189322363585,"k",0.157862073741853,"d","Correct"
3,3,193,3,"2  3  4","2  5  3",1,6,1,NA,NA,0.702536018565297,"k",0.0898749120533466,"d","Correct"
3,3,194,4,"1  5  4  3","3  2  5  1",0,4,5,1,1,1.24178790580481,"j",0.0951762311160564,"s","Correct"
3,3,195,4,"1  3  5  4","6  3  1  4",0,5,1,1,1,0.982456415891647,"j",0.0544729181565344,"s","Correct"
3,3,196,5,"1  3  6  5  2","1  3  5  2  4",1,4,6,NA,NA,2.39565595472232,"k",0.195078463293612,"s","Correct"
3,3,197,2,"1  3","4  6",0,3,6,0,0.5,2.39826903492212,"j",0.269709253218025,"d","Correct"
3,3,198,3,"6  5  1","2  3  4",1,2,1,NA,NA,1.70628434047103,"k",0.80561306560412,"s","Correct"
3,3,199,2,"2  4","2  5",0,4,5,0,0.5,2.06487362179905,"j",0.349613893777132,"d","Correct"
3,3,200,3,"3  5  4","5  6  4",1,6,3,NA,NA,1.22288450598717,"k",1.15754573931918,"d","Correct"
3,3,201,3,"1  5  3","3  5  2",1,4,1,NA,NA,7.08492645062506,"k",0.161304626148194,"d","Correct"
3,3,202,5,"6  4  2  3  5","1  4  2  6  5",1,1,3,NA,NA,0.697943131905049,"k",0.173248064238578,"d","Correct"
3,3,203,5,"4  5  2  6  1","2  5  3  4  6",0,4,2,4,2.5,0.973862561862916,"j",0.0539048444479704,"s","Correct"
3,3,204,2,"4  2","2  3",0,4,2,1,1,0.871214739512652,"j",0.123875737190247,"d","Correct"
3,3,205,5,"6  2  3  1  5","1  6  5  4  2",1,4,3,NA,NA,0.926472154911608,"k",0.192507641855627,"s","Correct"
3,3,206,4,"3  1  6  4","3  1  5  6",1,5,4,NA,NA,5.02754132356495,"k",0.881702072452754,"s","Correct"
3,3,207,5,"3  2  5  4  6","3  2  6  5  4",0,6,4,0,0.5,0.693724533542991,"j",0.081083650700748,"d","Correct"
3,3,208,5,"2  5  4  3  6","4  5  6  1  2",1,1,3,NA,NA,0.725015688221902,"k",0.127001049462706,"d","Correct"
3,3,209,4,"6  3  2  4","3  1  2  4",0,3,1,2,1.5,1.23696863465011,"j",0.131003827322274,"s","Correct"
3,3,210,5,"1  2  4  6  3","1  2  5  4  6",1,5,3,NA,NA,0.724918494001031,"k",0.102940008975565,"d","Correct"
3,3,211,5,"2  5  6  4  3","2  1  6  3  4",0,4,3,1,1,0.930214440450072,"j",0.108234385959804,"s","Correct"
3,3,212,3,"4  1  6","2  4  5",1,5,6,NA,NA,0.71088416967541,"k",0.129536252934486,"d","Correct"
3,3,213,4,"5  4  6  1","6  2  3  4",0,1,4,0,0.5,0.983494161628187,"j",0.119536702986807,"s","Correct"
3,3,214,4,"2  1  5  6","1  6  4  5",1,3,3,NA,NA,1.21412342879921,"k",0.132837239652872,"s","Correct"
3,3,215,5,"5  4  6  3  1","2  4  1  6  5",1,2,3,NA,NA,1.09477779455483,"k",0.154143936466426,"s","Correct"
3,3,216,3,"1  2  4","1  5  3",0,2,5,1,1,-2.84432087559253,"k",3.13060146709904,"s","Incorrect"
3,3,217,4,"6  4  1  5","6  4  5  2",0,1,5,1,1,1.22454496007413,"k",0.254688194487244,"d","Incorrect"
3,3,218,5,"1  6  2  4  3","3  6  5  4  2",0,3,2,0,0.5,2.42783151799813,"j",2.2098589502275,"s","Correct"
3,3,219,3,"4  6  2","4  2  1",0,2,1,0,0.5,1.28856797982007,"j",1.54854330699891,"s","Correct"
3,3,220,2,"3  1","6  1",0,3,6,1,1,1.02581476513296,"k",0.375880521722138,"d","Incorrect"
